subject,sentence_type,trial_type,violation_type,violation_position,congruent_subjects,congruent_attractor,congruent_subjects_attractor,condition,correct_wrong,valid_answer,block,trial_num,slide_num_of_viol,RT,is_outlier
21,embedding_mental_LR,Acceptable,None,other,False,False,False_False,PSP,CORRECT,CORRECT,1,25,0,0,False
21,embedding_mental_LR,Acceptable,None,other,False,False,False_False,PSP,CORRECT,CORRECT,1,3,0,0,False
21,embedding_mental_LR,Acceptable,None,other,False,False,False_False,PSP,CORRECT,CORRECT,1,65,0,0,False
21,embedding_mental_LR,Acceptable,None,other,False,False,False_False,PSP,WRONG_INC,WRONG,1,108,0,0,False
21,embedding_mental_LR,Acceptable,None,other,False,False,False_False,PSP,WRONG_INC,WRONG,1,165,0,0,False
21,embedding_mental_LR,Acceptable,None,other,False,False,False_False,SPS,CORRECT,CORRECT,1,139,0,0,False
21,embedding_mental_LR,Acceptable,None,other,False,False,False_False,SPS,CORRECT,CORRECT,1,204,0,0,False
21,embedding_mental_LR,Acceptable,None,other,False,False,False_False,SPS,CORRECT_INC,CORRECT,1,148,0,0,False
21,embedding_mental_LR,Acceptable,None,other,False,False,False_False,SPS,CORRECT_INC,CORRECT,1,158,0,0,False
21,embedding_mental_LR,Acceptable,None,other,False,False,False_False,SPS,CORRECT_INC,CORRECT,1,72,0,0,False
21,embedding_mental_LR,Acceptable,None,other,False,True,False_True,PSS,CORRECT,CORRECT,1,151,0,0,False
21,embedding_mental_LR,Acceptable,None,other,False,True,False_True,PSS,CORRECT,CORRECT,1,48,0,0,False
21,embedding_mental_LR,Acceptable,None,other,False,True,False_True,PSS,CORRECT_INC,CORRECT,1,60,0,0,False
21,embedding_mental_LR,Acceptable,None,other,False,True,False_True,PSS,WRONG_INC,WRONG,1,172,0,0,False
21,embedding_mental_LR,Acceptable,None,other,False,True,False_True,PSS,WRONG_INC,WRONG,1,185,0,0,False
21,embedding_mental_LR,Acceptable,None,other,False,True,False_True,SPP,CORRECT,CORRECT,1,193,0,0,False
21,embedding_mental_LR,Acceptable,None,other,False,True,False_True,SPP,CORRECT_INC,CORRECT,1,201,0,0,False
21,embedding_mental_LR,Acceptable,None,other,False,True,False_True,SPP,CORRECT_INC,CORRECT,1,256,0,0,False
21,embedding_mental_LR,Acceptable,None,other,False,True,False_True,SPP,WRONG_INC,WRONG,1,116,0,0,False
21,embedding_mental_LR,Acceptable,None,other,False,True,False_True,SPP,WRONG_INC,WRONG,1,70,0,0,False
21,embedding_mental_LR,Acceptable,None,other,True,False,True_False,PPS,CORRECT,CORRECT,1,118,0,0,False
21,embedding_mental_LR,Acceptable,None,other,True,False,True_False,PPS,CORRECT,CORRECT,1,247,0,0,False
21,embedding_mental_LR,Acceptable,None,other,True,False,True_False,PPS,CORRECT_INC,CORRECT,1,270,0,0,False
21,embedding_mental_LR,Acceptable,None,other,True,False,True_False,PPS,WRONG_INC,WRONG,1,195,0,0,False
21,embedding_mental_LR,Acceptable,None,other,True,False,True_False,PPS,WRONG_INC,WRONG,1,35,0,0,False
21,embedding_mental_LR,Acceptable,None,other,True,False,True_False,SSP,CORRECT,CORRECT,1,217,0,0,False
21,embedding_mental_LR,Acceptable,None,other,True,False,True_False,SSP,CORRECT_INC,CORRECT,1,175,0,0,False
21,embedding_mental_LR,Acceptable,None,other,True,False,True_False,SSP,WRONG_INC,WRONG,1,227,0,0,False
21,embedding_mental_LR,Acceptable,None,other,True,False,True_False,SSP,WRONG_INC,WRONG,1,36,0,0,False
21,embedding_mental_LR,Acceptable,None,other,True,False,True_False,SSP,WRONG_INC,WRONG,1,50,0,0,False
21,embedding_mental_LR,Acceptable,None,other,True,True,True_True,PPP,CORRECT,CORRECT,1,129,0,0,False
21,embedding_mental_LR,Acceptable,None,other,True,True,True_True,PPP,CORRECT,CORRECT,1,222,0,0,False
21,embedding_mental_LR,Acceptable,None,other,True,True,True_True,PPP,CORRECT_INC,CORRECT,1,134,0,0,False
21,embedding_mental_LR,Acceptable,None,other,True,True,True_True,PPP,CORRECT_INC,CORRECT,1,45,0,0,False
21,embedding_mental_LR,Acceptable,None,other,True,True,True_True,PPP,WRONG_INC,WRONG,1,90,0,0,False
21,embedding_mental_LR,Acceptable,None,other,True,True,True_True,SSS,CORRECT,CORRECT,1,205,0,0,False
21,embedding_mental_LR,Acceptable,None,other,True,True,True_True,SSS,CORRECT,CORRECT,1,218,0,0,False
21,embedding_mental_LR,Acceptable,None,other,True,True,True_True,SSS,CORRECT,CORRECT,1,4,0,0,False
21,embedding_mental_LR,Acceptable,None,other,True,True,True_True,SSS,CORRECT_INC,CORRECT,1,158,0,0,False
21,embedding_mental_LR,Acceptable,None,other,True,True,True_True,SSS,WRONG_INC,WRONG,1,212,0,0,False
21,embedding_mental_LR,Filler,N2,other,False,False,False_False,SPS,CORRECT_INC,CORRECT,1,77,-4,0,False
21,embedding_mental_LR,Filler,N2,other,False,True,False_True,PSS,CORRECT,CORRECT,1,108,-4,3.349,False
21,embedding_mental_LR,Filler,N2,other,False,True,False_True,PSS,CORRECT_INC,CORRECT,1,224,-4,0,False
21,embedding_mental_LR,Filler,N2,other,True,False,True_False,PPS,CORRECT_INC,CORRECT,1,187,-4,0,False
21,embedding_mental_LR,Filler,N2,other,True,False,True_False,PPS,CORRECT_INC,CORRECT,1,239,-4,0,False
21,embedding_mental_LR,Filler,N2,other,True,False,True_False,PPS,CORRECT_INC,CORRECT,1,25,-4,0,False
21,embedding_mental_LR,Filler,N2,other,True,False,True_False,PPS,CORRECT_INC,CORRECT,1,84,-4,0,False
21,embedding_mental_LR,Filler,N2,other,True,False,True_False,SSP,CORRECT_INC,CORRECT,1,111,-4,0,False
21,embedding_mental_LR,Filler,N2,other,True,True,True_True,PPP,CORRECT,CORRECT,1,230,-4,-1.4752,False
21,embedding_mental_LR,Filler,N2,other,True,True,True_True,PPP,CORRECT_INC,CORRECT,1,149,-4,0,False
21,embedding_mental_LR,Filler,V2,inner,False,False,False_False,PSP,CORRECT,CORRECT,1,97,-7,1.1562,False
21,embedding_mental_LR,Filler,V2,inner,False,False,False_False,PSP,CORRECT_INC,CORRECT,1,1,-7,0,False
21,embedding_mental_LR,Filler,V2,inner,False,False,False_False,PSP,CORRECT_INC,CORRECT,1,13,-7,0,False
21,embedding_mental_LR,Filler,V2,inner,False,False,False_False,PSP,CORRECT_INC,CORRECT,1,42,-7,0,False
21,embedding_mental_LR,Filler,V2,inner,False,False,False_False,PSP,CORRECT_INC,CORRECT,1,72,-7,0,False
21,embedding_mental_LR,Filler,V2,inner,False,False,False_False,PSP,WRONG,WRONG,1,135,-7,0,False
21,embedding_mental_LR,Filler,V2,inner,False,False,False_False,PSP,WRONG,WRONG,1,236,-7,0,False
21,embedding_mental_LR,Filler,V2,inner,False,False,False_False,SPS,CORRECT_INC,CORRECT,1,226,-7,0,False
21,embedding_mental_LR,Filler,V2,inner,False,False,False_False,SPS,CORRECT_INC,CORRECT,1,94,-7,0,False
21,embedding_mental_LR,Filler,V2,inner,False,True,False_True,PSS,CORRECT_INC,CORRECT,1,139,-7,0,False
21,embedding_mental_LR,Filler,V2,inner,False,True,False_True,PSS,CORRECT_INC,CORRECT,1,145,-7,0,False
21,embedding_mental_LR,Filler,V2,inner,False,True,False_True,PSS,CORRECT_INC,CORRECT,1,209,-7,0,False
21,embedding_mental_LR,Filler,V2,inner,False,True,False_True,PSS,WRONG,WRONG,1,37,-7,0,False
21,embedding_mental_LR,Filler,V2,inner,False,True,False_True,SPP,CORRECT_INC,CORRECT,1,112,-7,0,False
21,embedding_mental_LR,Filler,V2,inner,False,True,False_True,SPP,CORRECT_INC,CORRECT,1,180,-7,0,False
21,embedding_mental_LR,Filler,V2,inner,False,True,False_True,SPP,WRONG_DDC,REJECTED,1,123,-7,0,False
21,embedding_mental_LR,Filler,V2,inner,True,False,True_False,PPS,CORRECT_INC,CORRECT,1,267,-7,0,False
21,embedding_mental_LR,Filler,V2,inner,True,False,True_False,PPS,CORRECT_INC,CORRECT,1,88,-7,0,False
21,embedding_mental_LR,Filler,V2,inner,True,False,True_False,SSP,CORRECT_INC,CORRECT,1,127,-7,0,False
21,embedding_mental_LR,Filler,V2,inner,True,False,True_False,SSP,CORRECT_INC,CORRECT,1,232,-7,0,False
21,embedding_mental_LR,Filler,V2,inner,True,False,True_False,SSP,CORRECT_INC,CORRECT,1,263,-7,0,False
21,embedding_mental_LR,Filler,V2,inner,True,True,True_True,PPP,CORRECT_INC,CORRECT,1,205,-7,0,False
21,embedding_mental_LR,Filler,V2,inner,True,True,True_True,PPP,CORRECT_INC,CORRECT,1,91,-7,0,False
21,embedding_mental_LR,Filler,V2,inner,True,True,True_True,SSS,CORRECT_INC,CORRECT,1,138,-7,0,False
21,embedding_mental_LR,Filler,V2,inner,True,True,True_True,SSS,CORRECT_INC,CORRECT,1,144,-7,0,False
21,embedding_mental_LR,Filler,V2,inner,True,True,True_True,SSS,CORRECT_INC,CORRECT,1,177,-7,0,False
21,embedding_mental_LR,Filler,V2,inner,True,True,True_True,SSS,CORRECT_INC,CORRECT,1,226,-7,0,False
21,embedding_mental_LR,Filler,V2,inner,True,True,True_True,SSS,CORRECT_INC,CORRECT,1,230,-7,0,False
21,embedding_mental_LR,Filler,V2,inner,True,True,True_True,SSS,CORRECT_INC,CORRECT,1,234,-7,0,False
21,embedding_mental_LR,Filler,V2,inner,True,True,True_True,SSS,CORRECT_INC,CORRECT,1,79,-7,0,False
21,embedding_mental_LR,Violation,V2,inner,False,False,False_False,PSP,CORRECT_INC,CORRECT,1,119,7,0,False
21,embedding_mental_LR,Violation,V2,inner,False,False,False_False,PSP,CORRECT_INC,CORRECT,1,137,7,0,False
21,embedding_mental_LR,Violation,V2,inner,False,False,False_False,PSP,CORRECT_INC,CORRECT,1,211,7,0,False
21,embedding_mental_LR,Violation,V2,inner,False,False,False_False,PSP,CORRECT_INC,CORRECT,1,249,7,0,False
21,embedding_mental_LR,Violation,V2,inner,False,False,False_False,PSP,CORRECT_INC,CORRECT,1,253,7,0,False
21,embedding_mental_LR,Violation,V2,inner,False,False,False_False,SPS,CORRECT,CORRECT,1,66,7,0.72905,False
21,embedding_mental_LR,Violation,V2,inner,False,False,False_False,SPS,CORRECT_INC,CORRECT,1,110,7,0,False
21,embedding_mental_LR,Violation,V2,inner,False,False,False_False,SPS,CORRECT_INC,CORRECT,1,126,7,0,False
21,embedding_mental_LR,Violation,V2,inner,False,False,False_False,SPS,CORRECT_INC,CORRECT,1,127,7,0,False
21,embedding_mental_LR,Violation,V2,inner,False,False,False_False,SPS,CORRECT_INC,CORRECT,1,203,7,0,False
21,embedding_mental_LR,Violation,V2,inner,False,True,False_True,PSS,CORRECT,CORRECT,1,65,7,1.0402,False
21,embedding_mental_LR,Violation,V2,inner,False,True,False_True,PSS,CORRECT_INC,CORRECT,1,24,7,0,False
21,embedding_mental_LR,Violation,V2,inner,False,True,False_True,PSS,CORRECT_INC,CORRECT,1,29,7,0,False
21,embedding_mental_LR,Violation,V2,inner,False,True,False_True,PSS,CORRECT_INC,CORRECT,1,31,7,0,False
21,embedding_mental_LR,Violation,V2,inner,False,True,False_True,PSS,CORRECT_INC,CORRECT,1,87,7,0,False
21,embedding_mental_LR,Violation,V2,inner,False,True,False_True,SPP,CORRECT_INC,CORRECT,1,219,7,0,False
21,embedding_mental_LR,Violation,V2,inner,False,True,False_True,SPP,CORRECT_INC,CORRECT,1,224,7,0,False
21,embedding_mental_LR,Violation,V2,inner,False,True,False_True,SPP,CORRECT_INC,CORRECT,1,79,7,0,False
21,embedding_mental_LR,Violation,V2,inner,False,True,False_True,SPP,WRONG,WRONG,1,177,7,0,False
21,embedding_mental_LR,Violation,V2,inner,False,True,False_True,SPP,WRONG,WRONG,1,237,7,0,False
21,embedding_mental_LR,Violation,V2,inner,True,False,True_False,PPS,CORRECT_INC,CORRECT,1,114,7,0,False
21,embedding_mental_LR,Violation,V2,inner,True,False,True_False,PPS,CORRECT_INC,CORRECT,1,181,7,0,False
21,embedding_mental_LR,Violation,V2,inner,True,False,True_False,PPS,CORRECT_INC,CORRECT,1,216,7,0,False
21,embedding_mental_LR,Violation,V2,inner,True,False,True_False,PPS,CORRECT_INC,CORRECT,1,247,7,0,False
21,embedding_mental_LR,Violation,V2,inner,True,False,True_False,PPS,WRONG,WRONG,1,96,7,0,False
21,embedding_mental_LR,Violation,V2,inner,True,False,True_False,SSP,CORRECT,CORRECT,1,183,7,1.3466,False
21,embedding_mental_LR,Violation,V2,inner,True,False,True_False,SSP,CORRECT_INC,CORRECT,1,15,7,0,False
21,embedding_mental_LR,Violation,V2,inner,True,False,True_False,SSP,CORRECT_INC,CORRECT,1,198,7,0,False
21,embedding_mental_LR,Violation,V2,inner,True,False,True_False,SSP,CORRECT_INC,CORRECT,1,49,7,0,False
21,embedding_mental_LR,Violation,V2,inner,True,False,True_False,SSP,WRONG,WRONG,1,208,7,0,False
21,embedding_mental_LR,Violation,V2,inner,True,True,True_True,PPP,CORRECT,CORRECT,1,26,7,0.87464,False
21,embedding_mental_LR,Violation,V2,inner,True,True,True_True,PPP,CORRECT_INC,CORRECT,1,155,7,0,False
21,embedding_mental_LR,Violation,V2,inner,True,True,True_True,PPP,CORRECT_INC,CORRECT,1,36,7,0,False
21,embedding_mental_LR,Violation,V2,inner,True,True,True_True,PPP,CORRECT_INC,CORRECT,1,85,7,0,False
21,embedding_mental_LR,Violation,V2,inner,True,True,True_True,PPP,WRONG,WRONG,1,170,7,0,False
21,embedding_mental_LR,Violation,V2,inner,True,True,True_True,SSS,CORRECT_INC,CORRECT,1,150,7,0,False
21,embedding_mental_LR,Violation,V2,inner,True,True,True_True,SSS,CORRECT_INC,CORRECT,1,180,7,0,False
21,embedding_mental_LR,Violation,V2,inner,True,True,True_True,SSS,CORRECT_INC,CORRECT,1,228,7,0,False
21,embedding_mental_LR,Violation,V2,inner,True,True,True_True,SSS,WRONG,WRONG,1,76,7,0,False
21,embedding_mental_LR,Violation,V2,inner,True,True,True_True,SSS,WRONG_INC,WRONG,1,231,7,1.8755,False
21,embedding_mental_SR,Acceptable,None,other,False,,,PS,CORRECT,CORRECT,1,155,0,0,False
21,embedding_mental_SR,Acceptable,None,other,False,,,PS,CORRECT_INC,CORRECT,1,110,0,0,False
21,embedding_mental_SR,Acceptable,None,other,False,,,PS,CORRECT_INC,CORRECT,1,130,0,0,False
21,embedding_mental_SR,Acceptable,None,other,False,,,PS,CORRECT_INC,CORRECT,1,171,0,0,False
21,embedding_mental_SR,Acceptable,None,other,False,,,PS,WRONG_INC,WRONG,1,121,0,0,False
21,embedding_mental_SR,Acceptable,None,other,False,,,SP,CORRECT,CORRECT,1,176,0,0,False
21,embedding_mental_SR,Acceptable,None,other,False,,,SP,CORRECT,CORRECT,1,63,0,0,False
21,embedding_mental_SR,Acceptable,None,other,False,,,SP,CORRECT_INC,CORRECT,1,250,0,0,False
21,embedding_mental_SR,Acceptable,None,other,False,,,SP,CORRECT_INC,CORRECT,1,255,0,0,False
21,embedding_mental_SR,Acceptable,None,other,False,,,SP,WRONG_INC,WRONG,1,29,0,0,False
21,embedding_mental_SR,Acceptable,None,other,True,,,PP,CORRECT,CORRECT,1,179,0,0,False
21,embedding_mental_SR,Acceptable,None,other,True,,,PP,CORRECT,CORRECT,1,200,0,0,False
21,embedding_mental_SR,Acceptable,None,other,True,,,PP,CORRECT,CORRECT,1,22,0,0,False
21,embedding_mental_SR,Acceptable,None,other,True,,,PP,CORRECT_INC,CORRECT,1,78,0,0,False
21,embedding_mental_SR,Acceptable,None,other,True,,,PP,WRONG_INC,WRONG,1,214,0,0,False
21,embedding_mental_SR,Acceptable,None,other,True,,,SS,CORRECT,CORRECT,1,116,0,0,False
21,embedding_mental_SR,Acceptable,None,other,True,,,SS,CORRECT,CORRECT,1,207,0,0,False
21,embedding_mental_SR,Acceptable,None,other,True,,,SS,CORRECT,CORRECT,1,233,0,0,False
21,embedding_mental_SR,Acceptable,None,other,True,,,SS,CORRECT,CORRECT,1,236,0,0,False
21,embedding_mental_SR,Acceptable,None,other,True,,,SS,WRONG_INC,WRONG,1,100,0,0,False
21,embedding_mental_SR,Filler,N1,other,False,,,PS,CORRECT_INC,CORRECT,1,184,-1,0,False
21,embedding_mental_SR,Filler,N1,other,False,,,SP,CORRECT_INC,CORRECT,1,103,-1,0,False
21,embedding_mental_SR,Filler,N1,other,False,,,SP,CORRECT_INC,CORRECT,1,199,-1,0,False
21,embedding_mental_SR,Filler,N1,other,True,,,PP,WRONG,WRONG,1,181,-1,0,False
21,embedding_mental_SR,Filler,N1,other,True,,,SS,CORRECT_INC,CORRECT,1,53,-1,0,False
21,embedding_mental_SR,Filler,V2,inner,False,,,SP,CORRECT_INC,CORRECT,1,123,-5,0,False
21,embedding_mental_SR,Filler,V2,inner,False,,,SP,CORRECT_INC,CORRECT,1,190,-5,0,False
21,embedding_mental_SR,Filler,V2,inner,False,,,SP,CORRECT_INC,CORRECT,1,200,-5,0,False
21,embedding_mental_SR,Filler,V2,inner,False,,,SP,CORRECT_INC,CORRECT,1,242,-5,0,False
21,embedding_mental_SR,Filler,V2,inner,False,,,SP,CORRECT_INC,CORRECT,1,28,-5,0,False
21,embedding_mental_SR,Filler,V2,inner,False,,,SP,CORRECT_INC,CORRECT,1,33,-5,0,False
21,embedding_mental_SR,Filler,V2,inner,True,,,PP,CORRECT_INC,CORRECT,1,161,-5,0,False
21,embedding_mental_SR,Filler,V2,inner,True,,,PP,CORRECT_INC,CORRECT,1,203,-5,0,False
21,embedding_mental_SR,Filler,V2,inner,True,,,PP,CORRECT_INC,CORRECT,1,27,-5,0,False
21,embedding_mental_SR,Filler,V2,inner,True,,,SS,CORRECT_INC,CORRECT,1,10,-5,0,False
21,embedding_mental_SR,Filler,V2,inner,True,,,SS,CORRECT_INC,CORRECT,1,112,-5,0,False
21,embedding_mental_SR,Filler,V2,inner,True,,,SS,CORRECT_INC,CORRECT,1,167,-5,0,False
21,embedding_mental_SR,Filler,V2,inner,True,,,SS,CORRECT_INC,CORRECT,1,214,-5,0,False
21,embedding_mental_SR,Filler,V2,inner,True,,,SS,CORRECT_INC,CORRECT,1,248,-5,0,False
21,embedding_mental_SR,Filler,V2,inner,True,,,SS,CORRECT_INC,CORRECT,1,30,-5,0,False
21,embedding_mental_SR,Violation,V2,inner,False,,,PS,CORRECT,CORRECT,1,260,5,1.2522,False
21,embedding_mental_SR,Violation,V2,inner,False,,,PS,CORRECT_INC,CORRECT,1,171,5,0,False
21,embedding_mental_SR,Violation,V2,inner,False,,,PS,CORRECT_INC,CORRECT,1,220,5,0,False
21,embedding_mental_SR,Violation,V2,inner,False,,,PS,WRONG,WRONG,1,45,5,0,False
21,embedding_mental_SR,Violation,V2,inner,False,,,PS,WRONG,WRONG,1,94,5,0,False
21,embedding_mental_SR,Violation,V2,inner,False,,,SP,CORRECT_INC,CORRECT,1,146,5,0,False
21,embedding_mental_SR,Violation,V2,inner,False,,,SP,CORRECT_INC,CORRECT,1,219,5,0,False
21,embedding_mental_SR,Violation,V2,inner,False,,,SP,CORRECT_INC,CORRECT,1,52,5,0,False
21,embedding_mental_SR,Violation,V2,inner,False,,,SP,CORRECT_INC,CORRECT,1,64,5,0,False
21,embedding_mental_SR,Violation,V2,inner,False,,,SP,WRONG,WRONG,1,80,5,0,False
21,embedding_mental_SR,Violation,V2,inner,True,,,PP,CORRECT_INC,CORRECT,1,107,5,0,False
21,embedding_mental_SR,Violation,V2,inner,True,,,PP,CORRECT_INC,CORRECT,1,113,5,0,False
21,embedding_mental_SR,Violation,V2,inner,True,,,PP,CORRECT_INC,CORRECT,1,14,5,0,False
21,embedding_mental_SR,Violation,V2,inner,True,,,PP,CORRECT_INC,CORRECT,1,9,5,0,False
21,embedding_mental_SR,Violation,V2,inner,True,,,PP,WRONG,WRONG,1,47,5,0,False
21,embedding_mental_SR,Violation,V2,inner,True,,,SS,CORRECT_INC,CORRECT,1,106,5,0,False
21,embedding_mental_SR,Violation,V2,inner,True,,,SS,CORRECT_INC,CORRECT,1,223,5,0,False
21,embedding_mental_SR,Violation,V2,inner,True,,,SS,CORRECT_INC,CORRECT,1,238,5,0,False
21,embedding_mental_SR,Violation,V2,inner,True,,,SS,CORRECT_INC,CORRECT,1,245,5,0,False
21,embedding_mental_SR,Violation,V2,inner,True,,,SS,CORRECT_INC,CORRECT,1,81,5,0,False
21,objrel,Acceptable,None,other,False,,,PS,CORRECT,CORRECT,1,113,0,0,False
21,objrel,Acceptable,None,other,False,,,PS,CORRECT,CORRECT,1,199,0,0,False
21,objrel,Acceptable,None,other,False,,,PS,CORRECT,CORRECT,1,215,0,0,False
21,objrel,Acceptable,None,other,False,,,PS,CORRECT,CORRECT,1,32,0,0,False
21,objrel,Acceptable,None,other,False,,,PS,CORRECT,CORRECT,1,68,0,0,False
21,objrel,Acceptable,None,other,False,,,PS,CORRECT_INC,CORRECT,1,174,0,0,False
21,objrel,Acceptable,None,other,False,,,PS,CORRECT_INC,CORRECT,1,44,0,0,False
21,objrel,Acceptable,None,other,False,,,PS,WRONG_INC,WRONG,1,152,0,0,False
21,objrel,Acceptable,None,other,False,,,PS,WRONG_INC,WRONG,1,31,0,0,False
21,objrel,Acceptable,None,other,False,,,PS,WRONG_INC,WRONG,1,83,0,0,False
21,objrel,Acceptable,None,other,False,,,SP,CORRECT,CORRECT,1,166,0,0,False
21,objrel,Acceptable,None,other,False,,,SP,CORRECT,CORRECT,1,18,0,0,False
21,objrel,Acceptable,None,other,False,,,SP,CORRECT,CORRECT,1,183,0,0,False
21,objrel,Acceptable,None,other,False,,,SP,CORRECT,CORRECT,1,198,0,0,False
21,objrel,Acceptable,None,other,False,,,SP,CORRECT,CORRECT,1,57,0,0,False
21,objrel,Acceptable,None,other,False,,,SP,CORRECT_DDC,REJECTED,1,209,0,0,False
21,objrel,Acceptable,None,other,False,,,SP,CORRECT_INC,CORRECT,1,189,0,0,False
21,objrel,Acceptable,None,other,False,,,SP,WRONG,WRONG,1,101,0,0,False
21,objrel,Acceptable,None,other,False,,,SP,WRONG_INC,WRONG,1,168,0,0,False
21,objrel,Acceptable,None,other,False,,,SP,WRONG_INC,WRONG,1,264,0,0,False
21,objrel,Acceptable,None,other,True,,,PP,CORRECT,CORRECT,1,157,0,0,False
21,objrel,Acceptable,None,other,True,,,PP,CORRECT,CORRECT,1,160,0,0,False
21,objrel,Acceptable,None,other,True,,,PP,CORRECT,CORRECT,1,174,0,0,False
21,objrel,Acceptable,None,other,True,,,PP,CORRECT,CORRECT,1,257,0,0,False
21,objrel,Acceptable,None,other,True,,,PP,CORRECT,CORRECT,1,41,0,0,False
21,objrel,Acceptable,None,other,True,,,PP,CORRECT,CORRECT,1,56,0,0,False
21,objrel,Acceptable,None,other,True,,,PP,CORRECT_DDC,REJECTED,1,133,0,0,False
21,objrel,Acceptable,None,other,True,,,PP,CORRECT_INC,CORRECT,1,5,0,0,False
21,objrel,Acceptable,None,other,True,,,PP,WRONG_INC,WRONG,1,119,0,0,False
21,objrel,Acceptable,None,other,True,,,PP,WRONG_INC,WRONG,1,169,0,0,False
21,objrel,Acceptable,None,other,True,,,SS,CORRECT,CORRECT,1,147,0,0,False
21,objrel,Acceptable,None,other,True,,,SS,CORRECT,CORRECT,1,194,0,0,False
21,objrel,Acceptable,None,other,True,,,SS,CORRECT,CORRECT,1,6,0,0,False
21,objrel,Acceptable,None,other,True,,,SS,CORRECT,CORRECT,1,71,0,0,False
21,objrel,Acceptable,None,other,True,,,SS,CORRECT_INC,CORRECT,1,142,0,0,False
21,objrel,Acceptable,None,other,True,,,SS,CORRECT_INC,CORRECT,1,208,0,0,False
21,objrel,Acceptable,None,other,True,,,SS,WRONG,WRONG,1,74,0,0,False
21,objrel,Acceptable,None,other,True,,,SS,WRONG_INC,WRONG,1,102,0,0,False
21,objrel,Acceptable,None,other,True,,,SS,WRONG_INC,WRONG,1,142,0,0,False
21,objrel,Acceptable,None,other,True,,,SS,WRONG_INC,WRONG,1,64,0,0,False
21,objrel,Filler,N1,other,False,,,PS,WRONG,WRONG,1,8,-1,0,False
21,objrel,Filler,N1,other,False,,,PS,WRONG_INC,WRONG,1,150,-1,4.2186,False
21,objrel,Filler,N1,other,False,,,PS,WRONG_INC,WRONG,1,268,-1,4.1517,False
21,objrel,Filler,N1,other,False,,,SP,CORRECT_INC,CORRECT,1,100,-1,0,False
21,objrel,Filler,N1,other,False,,,SP,CORRECT_INC,CORRECT,1,144,-1,0,False
21,objrel,Filler,N1,other,False,,,SP,CORRECT_INC,CORRECT,1,268,-1,0,False
21,objrel,Filler,N1,other,True,,,PP,CORRECT_INC,CORRECT,1,197,-1,0,False
21,objrel,Filler,N1,other,True,,,PP,WRONG_INC,WRONG,1,229,-1,4.1728,False
21,objrel,Filler,N1,other,True,,,PP,WRONG_INC,WRONG,1,251,-1,3.9788,False
21,objrel,Filler,N1,other,True,,,PP,WRONG_INC,WRONG,1,63,-1,4.3743,False
21,objrel,Filler,V1,inner,False,,,PS,CORRECT_INC,CORRECT,1,166,-4,0,False
21,objrel,Filler,V1,inner,False,,,PS,CORRECT_INC,CORRECT,1,206,-4,0,False
21,objrel,Filler,V1,inner,False,,,PS,CORRECT_INC,CORRECT,1,61,-4,0,False
21,objrel,Filler,V1,inner,False,,,SP,CORRECT_INC,CORRECT,1,159,-4,0,False
21,objrel,Filler,V1,inner,False,,,SP,CORRECT_INC,CORRECT,1,59,-4,0,False
21,objrel,Filler,V1,inner,False,,,SP,CORRECT_INC,CORRECT,1,74,-4,0,False
21,objrel,Filler,V1,inner,False,,,SP,WRONG,WRONG,1,223,-4,0,False
21,objrel,Filler,V1,inner,True,,,PP,CORRECT_INC,CORRECT,1,10,-4,0,False
21,objrel,Filler,V1,inner,True,,,PP,CORRECT_INC,CORRECT,1,241,-4,0,False
21,objrel,Filler,V1,inner,True,,,PP,WRONG,WRONG,1,76,-4,0,False
21,objrel,Filler,V1,inner,True,,,SS,CORRECT,CORRECT,1,82,-4,1.2008,False
21,objrel,Filler,V1,inner,True,,,SS,CORRECT_INC,CORRECT,1,243,-4,0,False
21,objrel,Filler,V1,inner,True,,,SS,CORRECT_INC,CORRECT,1,53,-4,0,False
21,objrel,Filler,V1,inner,True,,,SS,CORRECT_INC,CORRECT,1,68,-4,0,False
21,objrel,Filler,V1,inner,True,,,SS,CORRECT_INC,CORRECT,1,87,-4,0,False
21,objrel,Filler,V2,outer,False,,,PS,CORRECT,CORRECT,1,265,-5,-1.9681,False
21,objrel,Filler,V2,outer,False,,,PS,CORRECT_INC,CORRECT,1,196,-5,0,False
21,objrel,Filler,V2,outer,False,,,PS,CORRECT_INC,CORRECT,1,211,-5,0,False
21,objrel,Filler,V2,outer,False,,,PS,CORRECT_INC,CORRECT,1,69,-5,0,False
21,objrel,Filler,V2,outer,False,,,PS,CORRECT_INC,CORRECT,1,80,-5,0,False
21,objrel,Filler,V2,outer,False,,,SP,CORRECT_INC,CORRECT,1,137,-5,0,False
21,objrel,Filler,V2,outer,False,,,SP,CORRECT_INC,CORRECT,1,39,-5,0,False
21,objrel,Filler,V2,outer,False,,,SP,WRONG,WRONG,1,103,-5,0,False
21,objrel,Filler,V2,outer,True,,,PP,CORRECT_INC,CORRECT,1,120,-5,0,False
21,objrel,Filler,V2,outer,True,,,PP,CORRECT_INC,CORRECT,1,156,-5,0,False
21,objrel,Filler,V2,outer,True,,,PP,CORRECT_INC,CORRECT,1,17,-5,0,False
21,objrel,Filler,V2,outer,True,,,PP,WRONG,WRONG,1,117,-5,0,False
21,objrel,Filler,V2,outer,True,,,SS,CORRECT_INC,CORRECT,1,132,-5,0,False
21,objrel,Filler,V2,outer,True,,,SS,CORRECT_INC,CORRECT,1,33,-5,0,False
21,objrel,Filler,V2,outer,True,,,SS,WRONG_DDC,REJECTED,1,86,-5,0,False
21,objrel,Violation,V1,inner,False,,,PS,CORRECT_INC,CORRECT,1,227,4,0,False
21,objrel,Violation,V1,inner,False,,,PS,CORRECT_INC,CORRECT,1,3,4,0,False
21,objrel,Violation,V1,inner,False,,,PS,WRONG,WRONG,1,194,4,0,False
21,objrel,Violation,V1,inner,False,,,PS,WRONG_INC,WRONG,1,173,4,2.897,False
21,objrel,Violation,V1,inner,False,,,PS,WRONG_INC,WRONG,1,20,4,2.797,False
21,objrel,Violation,V1,inner,False,,,SP,CORRECT_INC,CORRECT,1,129,4,0,False
21,objrel,Violation,V1,inner,False,,,SP,CORRECT_INC,CORRECT,1,24,4,0,False
21,objrel,Violation,V1,inner,False,,,SP,CORRECT_INC,CORRECT,1,267,4,0,False
21,objrel,Violation,V1,inner,False,,,SP,CORRECT_INC,CORRECT,1,270,4,0,False
21,objrel,Violation,V1,inner,False,,,SP,WRONG,WRONG,1,99,4,0,False
21,objrel,Violation,V1,inner,True,,,PP,CORRECT_INC,CORRECT,1,101,4,0,False
21,objrel,Violation,V1,inner,True,,,PP,CORRECT_INC,CORRECT,1,222,4,0,False
21,objrel,Violation,V1,inner,True,,,PP,CORRECT_INC,CORRECT,1,60,4,0,False
21,objrel,Violation,V1,inner,True,,,PP,WRONG,WRONG,1,124,4,0,False
21,objrel,Violation,V1,inner,True,,,PP,WRONG,WRONG,1,167,4,0,False
21,objrel,Violation,V1,inner,True,,,SS,CORRECT_INC,CORRECT,1,15,4,0,False
21,objrel,Violation,V1,inner,True,,,SS,CORRECT_INC,CORRECT,1,251,4,0,False
21,objrel,Violation,V1,inner,True,,,SS,CORRECT_INC,CORRECT,1,252,4,0,False
21,objrel,Violation,V1,inner,True,,,SS,CORRECT_INC,CORRECT,1,77,4,0,False
21,objrel,Violation,V1,inner,True,,,SS,CORRECT_INC,CORRECT,1,86,4,0,False
21,objrel,Violation,V2,outer,False,,,PS,CORRECT_INC,CORRECT,1,2,5,0,False
21,objrel,Violation,V2,outer,False,,,PS,CORRECT_INC,CORRECT,1,37,5,0,False
21,objrel,Violation,V2,outer,False,,,PS,CORRECT_INC,CORRECT,1,52,5,0,False
21,objrel,Violation,V2,outer,False,,,PS,WRONG,WRONG,1,269,5,0,False
21,objrel,Violation,V2,outer,False,,,PS,WRONG_INC,WRONG,1,239,5,2.4026,False
21,objrel,Violation,V2,outer,False,,,SP,CORRECT_INC,CORRECT,1,159,5,0,False
21,objrel,Violation,V2,outer,False,,,SP,CORRECT_INC,CORRECT,1,32,5,0,False
21,objrel,Violation,V2,outer,False,,,SP,CORRECT_INC,CORRECT,1,46,5,0,False
21,objrel,Violation,V2,outer,False,,,SP,CORRECT_INC,CORRECT,1,46,5,0,False
21,objrel,Violation,V2,outer,False,,,SP,WRONG_INC,WRONG,1,88,5,2.2344,False
21,objrel,Violation,V2,outer,True,,,PP,CORRECT_INC,CORRECT,1,141,5,0,False
21,objrel,Violation,V2,outer,True,,,PP,CORRECT_INC,CORRECT,1,233,5,0,False
21,objrel,Violation,V2,outer,True,,,PP,CORRECT_INC,CORRECT,1,54,5,0,False
21,objrel,Violation,V2,outer,True,,,PP,CORRECT_INC,CORRECT,1,69,5,0,False
21,objrel,Violation,V2,outer,True,,,PP,CORRECT_INC,CORRECT,1,90,5,0,False
21,objrel,Violation,V2,outer,True,,,SS,CORRECT_INC,CORRECT,1,12,5,0,False
21,objrel,Violation,V2,outer,True,,,SS,CORRECT_INC,CORRECT,1,163,5,0,False
21,objrel,Violation,V2,outer,True,,,SS,CORRECT_INC,CORRECT,1,229,5,0,False
21,objrel,Violation,V2,outer,True,,,SS,CORRECT_INC,CORRECT,1,43,5,0,False
21,objrel,Violation,V2,outer,True,,,SS,CORRECT_INC,CORRECT,1,55,5,0,False
21,objrel_nounpp,Acceptable,None,other,False,False,False_False,PSP,CORRECT,CORRECT,1,18,0,0,False
21,objrel_nounpp,Acceptable,None,other,False,False,False_False,PSP,CORRECT,CORRECT,1,57,0,0,False
21,objrel_nounpp,Acceptable,None,other,False,False,False_False,PSP,CORRECT,CORRECT,1,92,0,0,False
21,objrel_nounpp,Acceptable,None,other,False,False,False_False,PSP,CORRECT_INC,CORRECT,1,131,0,0,False
21,objrel_nounpp,Acceptable,None,other,False,False,False_False,PSP,CORRECT_INC,CORRECT,1,259,0,0,False
21,objrel_nounpp,Acceptable,None,other,False,False,False_False,PSP,CORRECT_INC,CORRECT,1,92,0,0,False
21,objrel_nounpp,Acceptable,None,other,False,False,False_False,PSP,WRONG_INC,WRONG,1,134,0,0,False
21,objrel_nounpp,Acceptable,None,other,False,False,False_False,PSP,WRONG_INC,WRONG,1,186,0,0,False
21,objrel_nounpp,Acceptable,None,other,False,False,False_False,PSP,WRONG_INC,WRONG,1,250,0,0,False
21,objrel_nounpp,Acceptable,None,other,False,False,False_False,PSP,WRONG_INC,WRONG,1,266,0,0,False
21,objrel_nounpp,Acceptable,None,other,False,False,False_False,SPS,CORRECT,CORRECT,1,115,0,0,False
21,objrel_nounpp,Acceptable,None,other,False,False,False_False,SPS,CORRECT,CORRECT,1,178,0,0,False
21,objrel_nounpp,Acceptable,None,other,False,False,False_False,SPS,WRONG_INC,WRONG,1,170,0,0,False
21,objrel_nounpp,Acceptable,None,other,False,False,False_False,SPS,WRONG_INC,WRONG,1,248,0,0,False
21,objrel_nounpp,Acceptable,None,other,False,False,False_False,SPS,WRONG_INC,WRONG,1,39,0,0,False
21,objrel_nounpp,Acceptable,None,other,False,False,False_False,SPS,WRONG_INC,WRONG,1,42,0,0,False
21,objrel_nounpp,Acceptable,None,other,False,False,False_False,SPS,WRONG_INC,WRONG,1,5,0,0,False
21,objrel_nounpp,Acceptable,None,other,False,False,False_False,SPS,WRONG_INC,WRONG,1,67,0,0,False
21,objrel_nounpp,Acceptable,None,other,False,False,False_False,SPS,WRONG_INC,WRONG,1,73,0,0,False
21,objrel_nounpp,Acceptable,None,other,False,False,False_False,SPS,WRONG_INC,WRONG,1,96,0,0,False
21,objrel_nounpp,Acceptable,None,other,False,True,False_True,PSS,CORRECT,CORRECT,1,193,0,0,False
21,objrel_nounpp,Acceptable,None,other,False,True,False_True,PSS,CORRECT,CORRECT,1,44,0,0,False
21,objrel_nounpp,Acceptable,None,other,False,True,False_True,PSS,CORRECT_DDC,REJECTED,1,115,0,0,False
21,objrel_nounpp,Acceptable,None,other,False,True,False_True,PSS,CORRECT_INC,CORRECT,1,118,0,0,False
21,objrel_nounpp,Acceptable,None,other,False,True,False_True,PSS,CORRECT_INC,CORRECT,1,186,0,0,False
21,objrel_nounpp,Acceptable,None,other,False,True,False_True,PSS,CORRECT_INC,CORRECT,1,262,0,0,False
21,objrel_nounpp,Acceptable,None,other,False,True,False_True,PSS,CORRECT_INC,CORRECT,1,95,0,0,False
21,objrel_nounpp,Acceptable,None,other,False,True,False_True,PSS,WRONG_INC,WRONG,1,13,0,0,False
21,objrel_nounpp,Acceptable,None,other,False,True,False_True,PSS,WRONG_INC,WRONG,1,162,0,0,False
21,objrel_nounpp,Acceptable,None,other,False,True,False_True,PSS,WRONG_INC,WRONG,1,179,0,0,False
21,objrel_nounpp,Acceptable,None,other,False,True,False_True,SPP,CORRECT,CORRECT,1,190,0,0,False
21,objrel_nounpp,Acceptable,None,other,False,True,False_True,SPP,CORRECT,CORRECT,1,7,0,0,False
21,objrel_nounpp,Acceptable,None,other,False,True,False_True,SPP,CORRECT,CORRECT,1,89,0,0,False
21,objrel_nounpp,Acceptable,None,other,False,True,False_True,SPP,WRONG,WRONG,1,264,0,0,False
21,objrel_nounpp,Acceptable,None,other,False,True,False_True,SPP,WRONG_INC,WRONG,1,169,0,0,False
21,objrel_nounpp,Acceptable,None,other,False,True,False_True,SPP,WRONG_INC,WRONG,1,202,0,0,False
21,objrel_nounpp,Acceptable,None,other,False,True,False_True,SPP,WRONG_INC,WRONG,1,204,0,0,False
21,objrel_nounpp,Acceptable,None,other,False,True,False_True,SPP,WRONG_INC,WRONG,1,22,0,0,False
21,objrel_nounpp,Acceptable,None,other,False,True,False_True,SPP,WRONG_INC,WRONG,1,61,0,0,False
21,objrel_nounpp,Acceptable,None,other,False,True,False_True,SPP,WRONG_INC,WRONG,1,89,0,0,False
21,objrel_nounpp,Acceptable,None,other,True,False,True_False,PPS,CORRECT,CORRECT,1,216,0,0,False
21,objrel_nounpp,Acceptable,None,other,True,False,True_False,PPS,CORRECT,CORRECT,1,245,0,0,False
21,objrel_nounpp,Acceptable,None,other,True,False,True_False,PPS,CORRECT,CORRECT,1,62,0,0,False
21,objrel_nounpp,Acceptable,None,other,True,False,True_False,PPS,CORRECT,CORRECT,1,66,0,0,False
21,objrel_nounpp,Acceptable,None,other,True,False,True_False,PPS,CORRECT,CORRECT,1,8,0,0,False
21,objrel_nounpp,Acceptable,None,other,True,False,True_False,PPS,CORRECT_INC,CORRECT,1,11,0,0,False
21,objrel_nounpp,Acceptable,None,other,True,False,True_False,PPS,CORRECT_INC,CORRECT,1,49,0,0,False
21,objrel_nounpp,Acceptable,None,other,True,False,True_False,PPS,CORRECT_INC,CORRECT,1,67,0,0,False
21,objrel_nounpp,Acceptable,None,other,True,False,True_False,PPS,WRONG_INC,WRONG,1,136,0,0,False
21,objrel_nounpp,Acceptable,None,other,True,False,True_False,PPS,WRONG_INC,WRONG,1,91,0,0,False
21,objrel_nounpp,Acceptable,None,other,True,False,True_False,SSP,CORRECT,CORRECT,1,160,0,0,False
21,objrel_nounpp,Acceptable,None,other,True,False,True_False,SSP,CORRECT,CORRECT,1,4,0,0,False
21,objrel_nounpp,Acceptable,None,other,True,False,True_False,SSP,CORRECT_INC,CORRECT,1,201,0,0,False
21,objrel_nounpp,Acceptable,None,other,True,False,True_False,SSP,CORRECT_INC,CORRECT,1,263,0,0,False
21,objrel_nounpp,Acceptable,None,other,True,False,True_False,SSP,CORRECT_INC,CORRECT,1,54,0,0,False
21,objrel_nounpp,Acceptable,None,other,True,False,True_False,SSP,WRONG_INC,WRONG,1,111,0,0,False
21,objrel_nounpp,Acceptable,None,other,True,False,True_False,SSP,WRONG_INC,WRONG,1,131,0,0,False
21,objrel_nounpp,Acceptable,None,other,True,False,True_False,SSP,WRONG_INC,WRONG,1,192,0,0,False
21,objrel_nounpp,Acceptable,None,other,True,False,True_False,SSP,WRONG_INC,WRONG,1,220,0,0,False
21,objrel_nounpp,Acceptable,None,other,True,False,True_False,SSP,WRONG_INC,WRONG,1,269,0,0,False
21,objrel_nounpp,Acceptable,None,other,True,True,True_True,PPP,CORRECT,CORRECT,1,215,0,0,False
21,objrel_nounpp,Acceptable,None,other,True,True,True_True,PPP,CORRECT,CORRECT,1,217,0,0,False
21,objrel_nounpp,Acceptable,None,other,True,True,True_True,PPP,CORRECT,CORRECT,1,254,0,0,False
21,objrel_nounpp,Acceptable,None,other,True,True,True_True,PPP,CORRECT_DDC,REJECTED,1,14,0,0,False
21,objrel_nounpp,Acceptable,None,other,True,True,True_True,PPP,CORRECT_INC,CORRECT,1,153,0,0,False
21,objrel_nounpp,Acceptable,None,other,True,True,True_True,PPP,CORRECT_INC,CORRECT,1,240,0,0,False
21,objrel_nounpp,Acceptable,None,other,True,True,True_True,PPP,CORRECT_INC,CORRECT,1,243,0,0,False
21,objrel_nounpp,Acceptable,None,other,True,True,True_True,PPP,CORRECT_INC,CORRECT,1,253,0,0,False
21,objrel_nounpp,Acceptable,None,other,True,True,True_True,PPP,WRONG_INC,WRONG,1,82,0,0,False
21,objrel_nounpp,Acceptable,None,other,True,True,True_True,PPP,WRONG_INC,WRONG,1,95,0,0,False
21,objrel_nounpp,Acceptable,None,other,True,True,True_True,SSS,CORRECT,CORRECT,1,19,0,0,False
21,objrel_nounpp,Acceptable,None,other,True,True,True_True,SSS,CORRECT,CORRECT,1,196,0,0,False
21,objrel_nounpp,Acceptable,None,other,True,True,True_True,SSS,CORRECT,CORRECT,1,55,0,0,False
21,objrel_nounpp,Acceptable,None,other,True,True,True_True,SSS,CORRECT,CORRECT,1,93,0,0,False
21,objrel_nounpp,Acceptable,None,other,True,True,True_True,SSS,CORRECT_INC,CORRECT,1,231,0,0,False
21,objrel_nounpp,Acceptable,None,other,True,True,True_True,SSS,CORRECT_INC,CORRECT,1,237,0,0,False
21,objrel_nounpp,Acceptable,None,other,True,True,True_True,SSS,CORRECT_INC,CORRECT,1,70,0,0,False
21,objrel_nounpp,Acceptable,None,other,True,True,True_True,SSS,WRONG_INC,WRONG,1,105,0,0,False
21,objrel_nounpp,Acceptable,None,other,True,True,True_True,SSS,WRONG_INC,WRONG,1,109,0,0,False
21,objrel_nounpp,Acceptable,None,other,True,True,True_True,SSS,WRONG_INC,WRONG,1,259,0,0,False
21,objrel_nounpp,Filler,N1,other,False,False,False_False,SPS,CORRECT_INC,CORRECT,1,240,-1,0,False
21,objrel_nounpp,Filler,N1,other,False,True,False_True,PSS,CORRECT_INC,CORRECT,1,17,-1,0,False
21,objrel_nounpp,Filler,N1,other,False,True,False_True,PSS,CORRECT_INC,CORRECT,1,221,-1,0,False
21,objrel_nounpp,Filler,N1,other,False,True,False_True,SPP,CORRECT_INC,CORRECT,1,125,-1,0,False
21,objrel_nounpp,Filler,N1,other,False,True,False_True,SPP,CORRECT_INC,CORRECT,1,84,-1,0,False
21,objrel_nounpp,Filler,N1,other,True,False,True_False,PPS,CORRECT_INC,CORRECT,1,244,-1,0,False
21,objrel_nounpp,Filler,N1,other,True,False,True_False,PPS,WRONG_INC,WRONG,1,141,-1,5.1808,False
21,objrel_nounpp,Filler,N1,other,True,False,True_False,SSP,CORRECT_INC,CORRECT,1,16,-1,0,False
21,objrel_nounpp,Filler,N1,other,True,True,True_True,PPP,WRONG,WRONG,1,6,-1,0,False
21,objrel_nounpp,Filler,N1,other,True,True,True_True,SSS,CORRECT_INC,CORRECT,1,221,-1,0,False
21,objrel_nounpp,Filler,N2,other,False,False,False_False,PSP,CORRECT_INC,CORRECT,1,149,-3,0,False
21,objrel_nounpp,Filler,N2,other,False,False,False_False,SPS,CORRECT_INC,CORRECT,1,136,-3,0,False
21,objrel_nounpp,Filler,N2,other,False,False,False_False,SPS,CORRECT_INC,CORRECT,1,258,-3,0,False
21,objrel_nounpp,Filler,N2,other,False,False,False_False,SPS,CORRECT_INC,CORRECT,1,266,-3,0,False
21,objrel_nounpp,Filler,N2,other,False,True,False_True,PSS,CORRECT,CORRECT,1,249,-3,3.9359,False
21,objrel_nounpp,Filler,N2,other,False,True,False_True,SPP,CORRECT_INC,CORRECT,1,105,-3,0,False
21,objrel_nounpp,Filler,N2,other,False,True,False_True,SPP,CORRECT_INC,CORRECT,1,165,-3,0,False
21,objrel_nounpp,Filler,N2,other,True,True,True_True,PPP,CORRECT_INC,CORRECT,1,83,-3,0,False
21,objrel_nounpp,Filler,N2,other,True,True,True_True,PPP,WRONG_DDC,REJECTED,1,107,-3,0,False
21,objrel_nounpp,Filler,N2,other,True,True,True_True,SSS,CORRECT_INC,CORRECT,1,11,-3,0,False
21,objrel_nounpp,Filler,V1,inner,False,False,False_False,PSP,CORRECT_INC,CORRECT,1,235,-7,0,False
21,objrel_nounpp,Filler,V1,inner,False,False,False_False,SPS,CORRECT_INC,CORRECT,1,128,-7,0,False
21,objrel_nounpp,Filler,V1,inner,False,False,False_False,SPS,CORRECT_INC,CORRECT,1,261,-7,0,False
21,objrel_nounpp,Filler,V1,inner,False,False,False_False,SPS,CORRECT_INC,CORRECT,1,59,-7,0,False
21,objrel_nounpp,Filler,V1,inner,False,False,False_False,SPS,CORRECT_INC,CORRECT,1,93,-7,0,False
21,objrel_nounpp,Filler,V1,inner,False,True,False_True,PSS,CORRECT_INC,CORRECT,1,156,-7,0,False
21,objrel_nounpp,Filler,V1,inner,False,True,False_True,PSS,CORRECT_INC,CORRECT,1,189,-7,0,False
21,objrel_nounpp,Filler,V1,inner,False,True,False_True,PSS,CORRECT_INC,CORRECT,1,241,-7,0,False
21,objrel_nounpp,Filler,V1,inner,False,True,False_True,SPP,CORRECT_INC,CORRECT,1,126,-7,0,False
21,objrel_nounpp,Filler,V1,inner,False,True,False_True,SPP,CORRECT_INC,CORRECT,1,140,-7,0,False
21,objrel_nounpp,Filler,V1,inner,False,True,False_True,SPP,CORRECT_INC,CORRECT,1,143,-7,0,False
21,objrel_nounpp,Filler,V1,inner,False,True,False_True,SPP,CORRECT_INC,CORRECT,1,225,-7,0,False
21,objrel_nounpp,Filler,V1,inner,False,True,False_True,SPP,CORRECT_INC,CORRECT,1,51,-7,0,False
21,objrel_nounpp,Filler,V1,inner,False,True,False_True,SPP,CORRECT_INC,CORRECT,1,58,-7,0,False
21,objrel_nounpp,Filler,V1,inner,True,False,True_False,PPS,CORRECT,CORRECT,1,34,-7,0.44608,False
21,objrel_nounpp,Filler,V1,inner,True,False,True_False,PPS,CORRECT_INC,CORRECT,1,206,-7,0,False
21,objrel_nounpp,Filler,V1,inner,True,False,True_False,PPS,CORRECT_INC,CORRECT,1,213,-7,0,False
21,objrel_nounpp,Filler,V1,inner,True,False,True_False,PPS,CORRECT_INC,CORRECT,1,213,-7,0,False
21,objrel_nounpp,Filler,V1,inner,True,False,True_False,PPS,CORRECT_INC,CORRECT,1,244,-7,0,False
21,objrel_nounpp,Filler,V1,inner,True,False,True_False,PPS,CORRECT_INC,CORRECT,1,35,-7,0,False
21,objrel_nounpp,Filler,V1,inner,True,False,True_False,SSP,CORRECT_INC,CORRECT,1,12,-7,0,False
21,objrel_nounpp,Filler,V1,inner,True,False,True_False,SSP,CORRECT_INC,CORRECT,1,238,-7,0,False
21,objrel_nounpp,Filler,V1,inner,True,True,True_True,PPP,CORRECT_INC,CORRECT,1,104,-7,0,False
21,objrel_nounpp,Filler,V1,inner,True,True,True_True,PPP,CORRECT_INC,CORRECT,1,128,-7,0,False
21,objrel_nounpp,Filler,V1,inner,True,True,True_True,PPP,CORRECT_INC,CORRECT,1,202,-7,0,False
21,objrel_nounpp,Filler,V1,inner,True,True,True_True,PPP,CORRECT_INC,CORRECT,1,242,-7,0,False
21,objrel_nounpp,Filler,V1,inner,True,True,True_True,PPP,WRONG,WRONG,1,133,-7,0,False
21,objrel_nounpp,Filler,V1,inner,True,True,True_True,SSS,CORRECT_INC,CORRECT,1,148,-7,0,False
21,objrel_nounpp,Filler,V1,inner,True,True,True_True,SSS,CORRECT_INC,CORRECT,1,258,-7,0,False
21,objrel_nounpp,Filler,V1,inner,True,True,True_True,SSS,WRONG_INC,WRONG,1,235,-7,0.93896,False
21,objrel_nounpp,Filler,V2,outer,False,False,False_False,PSP,CORRECT_INC,CORRECT,1,256,-8,0,False
21,objrel_nounpp,Filler,V2,outer,False,False,False_False,PSP,CORRECT_INC,CORRECT,1,260,-8,0,False
21,objrel_nounpp,Filler,V2,outer,False,False,False_False,PSP,CORRECT_INC,CORRECT,1,75,-8,0,False
21,objrel_nounpp,Filler,V2,outer,False,False,False_False,SPS,CORRECT_INC,CORRECT,1,195,-8,0,False
21,objrel_nounpp,Filler,V2,outer,False,False,False_False,SPS,CORRECT_INC,CORRECT,1,43,-8,0,False
21,objrel_nounpp,Filler,V2,outer,False,True,False_True,PSS,CORRECT_INC,CORRECT,1,122,-8,0,False
21,objrel_nounpp,Filler,V2,outer,False,True,False_True,SPP,CORRECT_INC,CORRECT,1,147,-8,0,False
21,objrel_nounpp,Filler,V2,outer,False,True,False_True,SPP,CORRECT_INC,CORRECT,1,30,-8,0,False
21,objrel_nounpp,Filler,V2,outer,False,True,False_True,SPP,CORRECT_INC,CORRECT,1,38,-8,0,False
21,objrel_nounpp,Filler,V2,outer,True,False,True_False,PPS,CORRECT_INC,CORRECT,1,124,-8,0,False
21,objrel_nounpp,Filler,V2,outer,True,False,True_False,PPS,CORRECT_INC,CORRECT,1,143,-8,0,False
21,objrel_nounpp,Filler,V2,outer,True,False,True_False,PPS,CORRECT_INC,CORRECT,1,210,-8,0,False
21,objrel_nounpp,Filler,V2,outer,True,False,True_False,PPS,CORRECT_INC,CORRECT,1,40,-8,0,False
21,objrel_nounpp,Filler,V2,outer,True,False,True_False,SSP,CORRECT,CORRECT,1,125,-8,1.0695,False
21,objrel_nounpp,Filler,V2,outer,True,False,True_False,SSP,CORRECT_INC,CORRECT,1,154,-8,0,False
21,objrel_nounpp,Filler,V2,outer,True,False,True_False,SSP,CORRECT_INC,CORRECT,1,191,-8,0,False
21,objrel_nounpp,Filler,V2,outer,True,False,True_False,SSP,WRONG_INC,WRONG,1,135,-8,0.82673,False
21,objrel_nounpp,Filler,V2,outer,True,True,True_True,PPP,CORRECT_INC,CORRECT,1,132,-8,0,False
21,objrel_nounpp,Filler,V2,outer,True,True,True_True,PPP,CORRECT_INC,CORRECT,1,140,-8,0,False
21,objrel_nounpp,Filler,V2,outer,True,True,True_True,PPP,CORRECT_INC,CORRECT,1,168,-8,0,False
21,objrel_nounpp,Filler,V2,outer,True,True,True_True,PPP,CORRECT_INC,CORRECT,1,185,-8,0,False
21,objrel_nounpp,Filler,V2,outer,True,True,True_True,PPP,CORRECT_INC,CORRECT,1,188,-8,0,False
21,objrel_nounpp,Filler,V2,outer,True,True,True_True,PPP,CORRECT_INC,CORRECT,1,23,-8,0,False
21,objrel_nounpp,Filler,V2,outer,True,True,True_True,PPP,WRONG_DDC,REJECTED,1,85,-8,0,False
21,objrel_nounpp,Filler,V2,outer,True,True,True_True,SSS,CORRECT_INC,CORRECT,1,109,-8,0,False
21,objrel_nounpp,Filler,V2,outer,True,True,True_True,SSS,CORRECT_INC,CORRECT,1,120,-8,0,False
21,objrel_nounpp,Filler,V2,outer,True,True,True_True,SSS,CORRECT_INC,CORRECT,1,145,-8,0,False
21,objrel_nounpp,Filler,V2,outer,True,True,True_True,SSS,CORRECT_INC,CORRECT,1,192,-8,0,False
21,objrel_nounpp,Filler,V2,outer,True,True,True_True,SSS,CORRECT_INC,CORRECT,1,98,-8,0,False
21,objrel_nounpp,Filler,V2,outer,True,True,True_True,SSS,WRONG_INC,WRONG,1,255,-8,1.783,False
21,objrel_nounpp,Violation,V1,inner,False,False,False_False,PSP,CORRECT_INC,CORRECT,1,16,7,0,False
21,objrel_nounpp,Violation,V1,inner,False,False,False_False,PSP,CORRECT_INC,CORRECT,1,19,7,0,False
21,objrel_nounpp,Violation,V1,inner,False,False,False_False,PSP,CORRECT_INC,CORRECT,1,34,7,0,False
21,objrel_nounpp,Violation,V1,inner,False,False,False_False,PSP,WRONG_INC,WRONG,1,188,7,1.6921,False
21,objrel_nounpp,Violation,V1,inner,False,False,False_False,PSP,WRONG_INC,WRONG,1,234,7,1.9777,False
21,objrel_nounpp,Violation,V1,inner,False,False,False_False,SPS,CORRECT_INC,CORRECT,1,178,7,0,False
21,objrel_nounpp,Violation,V1,inner,False,False,False_False,SPS,CORRECT_INC,CORRECT,1,20,7,0,False
21,objrel_nounpp,Violation,V1,inner,False,False,False_False,SPS,CORRECT_INC,CORRECT,1,225,7,0,False
21,objrel_nounpp,Violation,V1,inner,False,False,False_False,SPS,CORRECT_INC,CORRECT,1,40,7,0,False
21,objrel_nounpp,Violation,V1,inner,False,False,False_False,SPS,WRONG,WRONG,1,228,7,0,False
21,objrel_nounpp,Violation,V1,inner,False,True,False_True,PSS,CORRECT_INC,CORRECT,1,187,7,0,False
21,objrel_nounpp,Violation,V1,inner,False,True,False_True,PSS,WRONG,WRONG,1,162,7,0,False
21,objrel_nounpp,Violation,V1,inner,False,True,False_True,PSS,WRONG_DDC,REJECTED,1,161,7,0,False
21,objrel_nounpp,Violation,V1,inner,False,True,False_True,PSS,WRONG_INC,WRONG,1,175,7,2.2181,False
21,objrel_nounpp,Violation,V1,inner,False,True,False_True,PSS,WRONG_INC,WRONG,1,50,7,2.3831,False
21,objrel_nounpp,Violation,V1,inner,False,True,False_True,SPP,CORRECT_INC,CORRECT,1,99,7,0,False
21,objrel_nounpp,Violation,V1,inner,False,True,False_True,SPP,WRONG,WRONG,1,122,7,0,False
21,objrel_nounpp,Violation,V1,inner,False,True,False_True,SPP,WRONG,WRONG,1,38,7,0,False
21,objrel_nounpp,Violation,V1,inner,False,True,False_True,SPP,WRONG_INC,WRONG,1,252,7,1.2538,False
21,objrel_nounpp,Violation,V1,inner,False,True,False_True,SPP,WRONG_INC,WRONG,1,262,7,1.0895,False
21,objrel_nounpp,Violation,V1,inner,True,False,True_False,PPS,CORRECT_INC,CORRECT,1,164,7,0,False
21,objrel_nounpp,Violation,V1,inner,True,False,True_False,PPS,CORRECT_INC,CORRECT,1,9,7,0,False
21,objrel_nounpp,Violation,V1,inner,True,False,True_False,PPS,WRONG,WRONG,1,104,7,0,False
21,objrel_nounpp,Violation,V1,inner,True,False,True_False,PPS,WRONG,WRONG,1,7,7,0,False
21,objrel_nounpp,Violation,V1,inner,True,False,True_False,PPS,WRONG_INC,WRONG,1,117,7,1.1583,False
21,objrel_nounpp,Violation,V1,inner,True,False,True_False,SSP,CORRECT_INC,CORRECT,1,212,7,0,False
21,objrel_nounpp,Violation,V1,inner,True,False,True_False,SSP,WRONG,WRONG,1,41,7,0,False
21,objrel_nounpp,Violation,V1,inner,True,False,True_False,SSP,WRONG,WRONG,1,51,7,0,False
21,objrel_nounpp,Violation,V1,inner,True,False,True_False,SSP,WRONG_INC,WRONG,1,152,7,-0.70935,False
21,objrel_nounpp,Violation,V1,inner,True,False,True_False,SSP,WRONG_INC,WRONG,1,261,7,1.1522,False
21,objrel_nounpp,Violation,V1,inner,True,True,True_True,PPP,CORRECT_INC,CORRECT,1,138,7,0,False
21,objrel_nounpp,Violation,V1,inner,True,True,True_True,PPP,CORRECT_INC,CORRECT,1,172,7,0,False
21,objrel_nounpp,Violation,V1,inner,True,True,True_True,PPP,CORRECT_INC,CORRECT,1,26,7,0,False
21,objrel_nounpp,Violation,V1,inner,True,True,True_True,PPP,CORRECT_INC,CORRECT,1,48,7,0,False
21,objrel_nounpp,Violation,V1,inner,True,True,True_True,PPP,CORRECT_INC,CORRECT,1,71,7,0,False
21,objrel_nounpp,Violation,V1,inner,True,True,True_True,SSS,CORRECT_INC,CORRECT,1,121,7,0,False
21,objrel_nounpp,Violation,V1,inner,True,True,True_True,SSS,CORRECT_INC,CORRECT,1,182,7,0,False
21,objrel_nounpp,Violation,V1,inner,True,True,True_True,SSS,CORRECT_INC,CORRECT,1,62,7,0,False
21,objrel_nounpp,Violation,V1,inner,True,True,True_True,SSS,WRONG,WRONG,1,176,7,0,False
21,objrel_nounpp,Violation,V1,inner,True,True,True_True,SSS,WRONG_INC,WRONG,1,254,7,2.2832,False
21,objrel_nounpp,Violation,V2,outer,False,False,False_False,PSP,CORRECT_INC,CORRECT,1,184,8,0,False
21,objrel_nounpp,Violation,V2,outer,False,False,False_False,PSP,CORRECT_INC,CORRECT,1,210,8,0,False
21,objrel_nounpp,Violation,V2,outer,False,False,False_False,PSP,CORRECT_INC,CORRECT,1,218,8,0,False
21,objrel_nounpp,Violation,V2,outer,False,False,False_False,PSP,CORRECT_INC,CORRECT,1,56,8,0,False
21,objrel_nounpp,Violation,V2,outer,False,False,False_False,PSP,CORRECT_INC,CORRECT,1,97,8,0,False
21,objrel_nounpp,Violation,V2,outer,False,False,False_False,SPS,CORRECT_INC,CORRECT,1,163,8,0,False
21,objrel_nounpp,Violation,V2,outer,False,False,False_False,SPS,CORRECT_INC,CORRECT,1,197,8,0,False
21,objrel_nounpp,Violation,V2,outer,False,False,False_False,SPS,CORRECT_INC,CORRECT,1,47,8,0,False
21,objrel_nounpp,Violation,V2,outer,False,False,False_False,SPS,CORRECT_INC,CORRECT,1,98,8,0,False
21,objrel_nounpp,Violation,V2,outer,False,False,False_False,SPS,WRONG,WRONG,1,27,8,0,False
21,objrel_nounpp,Violation,V2,outer,False,True,False_True,PSS,CORRECT_INC,CORRECT,1,207,8,0,False
21,objrel_nounpp,Violation,V2,outer,False,True,False_True,PSS,CORRECT_INC,CORRECT,1,232,8,0,False
21,objrel_nounpp,Violation,V2,outer,False,True,False_True,PSS,CORRECT_INC,CORRECT,1,246,8,0,False
21,objrel_nounpp,Violation,V2,outer,False,True,False_True,PSS,CORRECT_INC,CORRECT,1,73,8,0,False
21,objrel_nounpp,Violation,V2,outer,False,True,False_True,PSS,WRONG,WRONG,1,2,8,0,False
21,objrel_nounpp,Violation,V2,outer,False,True,False_True,SPP,CORRECT_INC,CORRECT,1,106,8,0,False
21,objrel_nounpp,Violation,V2,outer,False,True,False_True,SPP,CORRECT_INC,CORRECT,1,157,8,0,False
21,objrel_nounpp,Violation,V2,outer,False,True,False_True,SPP,CORRECT_INC,CORRECT,1,21,8,0,False
21,objrel_nounpp,Violation,V2,outer,False,True,False_True,SPP,WRONG,WRONG,1,154,8,0,False
21,objrel_nounpp,Violation,V2,outer,False,True,False_True,SPP,WRONG,WRONG,1,182,8,0,False
21,objrel_nounpp,Violation,V2,outer,True,False,True_False,PPS,CORRECT_INC,CORRECT,1,191,8,0,False
21,objrel_nounpp,Violation,V2,outer,True,False,True_False,PPS,CORRECT_INC,CORRECT,1,265,8,0,False
21,objrel_nounpp,Violation,V2,outer,True,False,True_False,PPS,CORRECT_INC,CORRECT,1,58,8,0,False
21,objrel_nounpp,Violation,V2,outer,True,False,True_False,PPS,WRONG,WRONG,1,23,8,0,False
21,objrel_nounpp,Violation,V2,outer,True,False,True_False,PPS,WRONG_INC,WRONG,1,257,8,1.7978,False
21,objrel_nounpp,Violation,V2,outer,True,False,True_False,SSP,CORRECT_INC,CORRECT,1,146,8,0,False
21,objrel_nounpp,Violation,V2,outer,True,False,True_False,SSP,CORRECT_INC,CORRECT,1,151,8,0,False
21,objrel_nounpp,Violation,V2,outer,True,False,True_False,SSP,CORRECT_INC,CORRECT,1,153,8,0,False
21,objrel_nounpp,Violation,V2,outer,True,False,True_False,SSP,CORRECT_INC,CORRECT,1,21,8,0,False
21,objrel_nounpp,Violation,V2,outer,True,False,True_False,SSP,WRONG,WRONG,1,102,8,0,False
21,objrel_nounpp,Violation,V2,outer,True,True,True_True,PPP,CORRECT_INC,CORRECT,1,114,8,0,False
21,objrel_nounpp,Violation,V2,outer,True,True,True_True,PPP,CORRECT_INC,CORRECT,1,130,8,0,False
21,objrel_nounpp,Violation,V2,outer,True,True,True_True,PPP,CORRECT_INC,CORRECT,1,246,8,0,False
21,objrel_nounpp,Violation,V2,outer,True,True,True_True,PPP,CORRECT_INC,CORRECT,1,78,8,0,False
21,objrel_nounpp,Violation,V2,outer,True,True,True_True,PPP,CORRECT_INC,CORRECT,1,81,8,0,False
21,objrel_nounpp,Violation,V2,outer,True,True,True_True,SSS,CORRECT,CORRECT,1,1,8,0.38497,False
21,objrel_nounpp,Violation,V2,outer,True,True,True_True,SSS,CORRECT_INC,CORRECT,1,164,8,0,False
21,objrel_nounpp,Violation,V2,outer,True,True,True_True,SSS,CORRECT_INC,CORRECT,1,173,8,0,False
21,objrel_nounpp,Violation,V2,outer,True,True,True_True,SSS,CORRECT_INC,CORRECT,1,28,8,0,False
21,objrel_nounpp,Violation,V2,outer,True,True,True_True,SSS,WRONG,WRONG,1,75,8,0,False
22,embedding_mental_LR,Acceptable,None,other,False,False,False_False,PSP,CORRECT,CORRECT,1,13,0,0,False
22,embedding_mental_LR,Acceptable,None,other,False,False,False_False,PSP,CORRECT,CORRECT,1,139,0,0,False
22,embedding_mental_LR,Acceptable,None,other,False,False,False_False,PSP,CORRECT,CORRECT,1,151,0,0,False
22,embedding_mental_LR,Acceptable,None,other,False,False,False_False,PSP,CORRECT,CORRECT,1,81,0,0,False
22,embedding_mental_LR,Acceptable,None,other,False,False,False_False,PSP,WRONG_INC,WRONG,1,59,0,0,False
22,embedding_mental_LR,Acceptable,None,other,False,False,False_False,SPS,CORRECT,CORRECT,1,148,0,0,False
22,embedding_mental_LR,Acceptable,None,other,False,False,False_False,SPS,CORRECT,CORRECT,1,37,0,0,False
22,embedding_mental_LR,Acceptable,None,other,False,False,False_False,SPS,CORRECT,CORRECT,1,58,0,0,False
22,embedding_mental_LR,Acceptable,None,other,False,False,False_False,SPS,CORRECT_INC,CORRECT,1,130,0,0,False
22,embedding_mental_LR,Acceptable,None,other,False,False,False_False,SPS,WRONG_INC,WRONG,1,186,0,0,False
22,embedding_mental_LR,Acceptable,None,other,False,True,False_True,PSS,CORRECT,CORRECT,1,214,0,0,False
22,embedding_mental_LR,Acceptable,None,other,False,True,False_True,PSS,CORRECT,CORRECT,1,5,0,0,False
22,embedding_mental_LR,Acceptable,None,other,False,True,False_True,PSS,CORRECT,CORRECT,1,7,0,0,False
22,embedding_mental_LR,Acceptable,None,other,False,True,False_True,PSS,CORRECT,CORRECT,1,84,0,0,False
22,embedding_mental_LR,Acceptable,None,other,False,True,False_True,PSS,WRONG_INC,WRONG,1,210,0,0,False
22,embedding_mental_LR,Acceptable,None,other,False,True,False_True,SPP,CORRECT,CORRECT,1,116,0,0,False
22,embedding_mental_LR,Acceptable,None,other,False,True,False_True,SPP,CORRECT,CORRECT,1,194,0,0,False
22,embedding_mental_LR,Acceptable,None,other,False,True,False_True,SPP,CORRECT,CORRECT,1,238,0,0,False
22,embedding_mental_LR,Acceptable,None,other,False,True,False_True,SPP,CORRECT_INC,CORRECT,1,16,0,0,False
22,embedding_mental_LR,Acceptable,None,other,False,True,False_True,SPP,WRONG_INC,WRONG,1,208,0,0,False
22,embedding_mental_LR,Acceptable,None,other,True,False,True_False,PPS,CORRECT,CORRECT,1,177,0,0,False
22,embedding_mental_LR,Acceptable,None,other,True,False,True_False,PPS,CORRECT,CORRECT,1,53,0,0,False
22,embedding_mental_LR,Acceptable,None,other,True,False,True_False,PPS,CORRECT,CORRECT,1,96,0,0,False
22,embedding_mental_LR,Acceptable,None,other,True,False,True_False,PPS,WRONG_INC,WRONG,1,215,0,0,False
22,embedding_mental_LR,Acceptable,None,other,True,False,True_False,PPS,WRONG_INC,WRONG,1,56,0,0,False
22,embedding_mental_LR,Acceptable,None,other,True,False,True_False,SSP,CORRECT,CORRECT,1,107,0,0,False
22,embedding_mental_LR,Acceptable,None,other,True,False,True_False,SSP,CORRECT,CORRECT,1,19,0,0,False
22,embedding_mental_LR,Acceptable,None,other,True,False,True_False,SSP,CORRECT,CORRECT,1,77,0,0,False
22,embedding_mental_LR,Acceptable,None,other,True,False,True_False,SSP,CORRECT_INC,CORRECT,1,12,0,0,False
22,embedding_mental_LR,Acceptable,None,other,True,False,True_False,SSP,CORRECT_INC,CORRECT,1,189,0,0,False
22,embedding_mental_LR,Acceptable,None,other,True,True,True_True,PPP,CORRECT,CORRECT,1,143,0,0,False
22,embedding_mental_LR,Acceptable,None,other,True,True,True_True,PPP,CORRECT,CORRECT,1,176,0,0,False
22,embedding_mental_LR,Acceptable,None,other,True,True,True_True,PPP,CORRECT,CORRECT,1,217,0,0,False
22,embedding_mental_LR,Acceptable,None,other,True,True,True_True,PPP,CORRECT_DDC,REJECTED,1,213,0,0,False
22,embedding_mental_LR,Acceptable,None,other,True,True,True_True,PPP,CORRECT_INC,CORRECT,1,191,0,0,False
22,embedding_mental_LR,Acceptable,None,other,True,True,True_True,SSS,CORRECT,CORRECT,1,208,0,0,False
22,embedding_mental_LR,Acceptable,None,other,True,True,True_True,SSS,CORRECT,CORRECT,1,54,0,0,False
22,embedding_mental_LR,Acceptable,None,other,True,True,True_True,SSS,CORRECT_INC,CORRECT,1,232,0,0,False
22,embedding_mental_LR,Acceptable,None,other,True,True,True_True,SSS,CORRECT_INC,CORRECT,1,30,0,0,False
22,embedding_mental_LR,Acceptable,None,other,True,True,True_True,SSS,WRONG_INC,WRONG,1,229,0,0,False
22,embedding_mental_LR,Filler,N2,other,False,False,False_False,SPS,CORRECT_INC,CORRECT,1,228,-4,0,False
22,embedding_mental_LR,Filler,N2,other,False,False,False_False,SPS,CORRECT_INC,CORRECT,1,39,-4,0,False
22,embedding_mental_LR,Filler,N2,other,False,True,False_True,PSS,CORRECT_INC,CORRECT,1,114,-4,0,False
22,embedding_mental_LR,Filler,N2,other,False,True,False_True,PSS,CORRECT_INC,CORRECT,1,123,-4,0,False
22,embedding_mental_LR,Filler,N2,other,False,True,False_True,PSS,CORRECT_INC,CORRECT,1,53,-4,0,False
22,embedding_mental_LR,Filler,N2,other,False,True,False_True,SPP,CORRECT_INC,CORRECT,1,206,-4,0,False
22,embedding_mental_LR,Filler,N2,other,True,False,True_False,SSP,CORRECT_INC,CORRECT,1,172,-4,0,False
22,embedding_mental_LR,Filler,N2,other,True,False,True_False,SSP,WRONG_INC,WRONG,1,92,-4,2.9503,False
22,embedding_mental_LR,Filler,N2,other,True,True,True_True,PPP,CORRECT_INC,CORRECT,1,120,-4,0,False
22,embedding_mental_LR,Filler,N2,other,True,True,True_True,PPP,CORRECT_INC,CORRECT,1,142,-4,0,False
22,embedding_mental_LR,Filler,V2,inner,False,False,False_False,PSP,CORRECT_INC,CORRECT,1,49,-7,0,False
22,embedding_mental_LR,Filler,V2,inner,False,False,False_False,PSP,CORRECT_INC,CORRECT,1,89,-7,0,False
22,embedding_mental_LR,Filler,V2,inner,False,False,False_False,SPS,CORRECT,CORRECT,1,54,-7,0.87316,False
22,embedding_mental_LR,Filler,V2,inner,False,False,False_False,SPS,CORRECT_INC,CORRECT,1,149,-7,0,False
22,embedding_mental_LR,Filler,V2,inner,False,False,False_False,SPS,CORRECT_INC,CORRECT,1,17,-7,0,False
22,embedding_mental_LR,Filler,V2,inner,False,False,False_False,SPS,CORRECT_INC,CORRECT,1,213,-7,0,False
22,embedding_mental_LR,Filler,V2,inner,False,True,False_True,PSS,CORRECT_INC,CORRECT,1,178,-7,0,False
22,embedding_mental_LR,Filler,V2,inner,False,True,False_True,PSS,CORRECT_INC,CORRECT,1,246,-7,0,False
22,embedding_mental_LR,Filler,V2,inner,False,True,False_True,SPP,CORRECT_INC,CORRECT,1,252,-7,0,False
22,embedding_mental_LR,Filler,V2,inner,False,True,False_True,SPP,CORRECT_INC,CORRECT,1,29,-7,0,False
22,embedding_mental_LR,Filler,V2,inner,False,True,False_True,SPP,CORRECT_INC,CORRECT,1,71,-7,0,False
22,embedding_mental_LR,Filler,V2,inner,False,True,False_True,SPP,CORRECT_INC,CORRECT,1,96,-7,0,False
22,embedding_mental_LR,Filler,V2,inner,True,False,True_False,PPS,CORRECT_INC,CORRECT,1,110,-7,0,False
22,embedding_mental_LR,Filler,V2,inner,True,False,True_False,PPS,CORRECT_INC,CORRECT,1,12,-7,0,False
22,embedding_mental_LR,Filler,V2,inner,True,False,True_False,PPS,CORRECT_INC,CORRECT,1,222,-7,0,False
22,embedding_mental_LR,Filler,V2,inner,True,False,True_False,PPS,CORRECT_INC,CORRECT,1,265,-7,0,False
22,embedding_mental_LR,Filler,V2,inner,True,False,True_False,PPS,CORRECT_INC,CORRECT,1,7,-7,0,False
22,embedding_mental_LR,Filler,V2,inner,True,False,True_False,PPS,CORRECT_INC,CORRECT,1,89,-7,0,False
22,embedding_mental_LR,Filler,V2,inner,True,False,True_False,PPS,WRONG_DDC,REJECTED,1,9,-7,0,False
22,embedding_mental_LR,Filler,V2,inner,True,False,True_False,SSP,CORRECT_INC,CORRECT,1,136,-7,0,False
22,embedding_mental_LR,Filler,V2,inner,True,False,True_False,SSP,CORRECT_INC,CORRECT,1,198,-7,0,False
22,embedding_mental_LR,Filler,V2,inner,True,False,True_False,SSP,CORRECT_INC,CORRECT,1,212,-7,0,False
22,embedding_mental_LR,Filler,V2,inner,True,False,True_False,SSP,CORRECT_INC,CORRECT,1,253,-7,0,False
22,embedding_mental_LR,Filler,V2,inner,True,False,True_False,SSP,CORRECT_INC,CORRECT,1,26,-7,0,False
22,embedding_mental_LR,Filler,V2,inner,True,False,True_False,SSP,CORRECT_INC,CORRECT,1,64,-7,0,False
22,embedding_mental_LR,Filler,V2,inner,True,True,True_True,PPP,CORRECT_INC,CORRECT,1,134,-7,0,False
22,embedding_mental_LR,Filler,V2,inner,True,True,True_True,PPP,CORRECT_INC,CORRECT,1,20,-7,0,False
22,embedding_mental_LR,Filler,V2,inner,True,True,True_True,SSS,CORRECT_INC,CORRECT,1,168,-7,0,False
22,embedding_mental_LR,Filler,V2,inner,True,True,True_True,SSS,CORRECT_INC,CORRECT,1,62,-7,0,False
22,embedding_mental_LR,Filler,V2,inner,True,True,True_True,SSS,WRONG_INC,WRONG,1,242,-7,2.4223,False
22,embedding_mental_LR,Violation,V2,inner,False,False,False_False,PSP,CORRECT_INC,CORRECT,1,190,7,0,False
22,embedding_mental_LR,Violation,V2,inner,False,False,False_False,PSP,CORRECT_INC,CORRECT,1,195,7,0,False
22,embedding_mental_LR,Violation,V2,inner,False,False,False_False,PSP,CORRECT_INC,CORRECT,1,46,7,0,False
22,embedding_mental_LR,Violation,V2,inner,False,False,False_False,PSP,CORRECT_INC,CORRECT,1,46,7,0,False
22,embedding_mental_LR,Violation,V2,inner,False,False,False_False,PSP,CORRECT_INC,CORRECT,1,61,7,0,False
22,embedding_mental_LR,Violation,V2,inner,False,False,False_False,SPS,CORRECT_INC,CORRECT,1,119,7,0,False
22,embedding_mental_LR,Violation,V2,inner,False,False,False_False,SPS,CORRECT_INC,CORRECT,1,152,7,0,False
22,embedding_mental_LR,Violation,V2,inner,False,False,False_False,SPS,CORRECT_INC,CORRECT,1,216,7,0,False
22,embedding_mental_LR,Violation,V2,inner,False,False,False_False,SPS,CORRECT_INC,CORRECT,1,57,7,0,False
22,embedding_mental_LR,Violation,V2,inner,False,False,False_False,SPS,CORRECT_INC,CORRECT,1,83,7,0,False
22,embedding_mental_LR,Violation,V2,inner,False,True,False_True,PSS,CORRECT_INC,CORRECT,1,116,7,0,False
22,embedding_mental_LR,Violation,V2,inner,False,True,False_True,PSS,CORRECT_INC,CORRECT,1,137,7,0,False
22,embedding_mental_LR,Violation,V2,inner,False,True,False_True,PSS,CORRECT_INC,CORRECT,1,242,7,0,False
22,embedding_mental_LR,Violation,V2,inner,False,True,False_True,PSS,CORRECT_INC,CORRECT,1,254,7,0,False
22,embedding_mental_LR,Violation,V2,inner,False,True,False_True,PSS,WRONG,WRONG,1,110,7,0,False
22,embedding_mental_LR,Violation,V2,inner,False,True,False_True,SPP,CORRECT_INC,CORRECT,1,103,7,0,False
22,embedding_mental_LR,Violation,V2,inner,False,True,False_True,SPP,CORRECT_INC,CORRECT,1,167,7,0,False
22,embedding_mental_LR,Violation,V2,inner,False,True,False_True,SPP,CORRECT_INC,CORRECT,1,195,7,0,False
22,embedding_mental_LR,Violation,V2,inner,False,True,False_True,SPP,CORRECT_INC,CORRECT,1,206,7,0,False
22,embedding_mental_LR,Violation,V2,inner,False,True,False_True,SPP,CORRECT_INC,CORRECT,1,218,7,0,False
22,embedding_mental_LR,Violation,V2,inner,True,False,True_False,PPS,CORRECT_INC,CORRECT,1,171,7,0,False
22,embedding_mental_LR,Violation,V2,inner,True,False,True_False,PPS,CORRECT_INC,CORRECT,1,199,7,0,False
22,embedding_mental_LR,Violation,V2,inner,True,False,True_False,PPS,CORRECT_INC,CORRECT,1,211,7,0,False
22,embedding_mental_LR,Violation,V2,inner,True,False,True_False,PPS,CORRECT_INC,CORRECT,1,219,7,0,False
22,embedding_mental_LR,Violation,V2,inner,True,False,True_False,PPS,CORRECT_INC,CORRECT,1,260,7,0,False
22,embedding_mental_LR,Violation,V2,inner,True,False,True_False,SSP,CORRECT_INC,CORRECT,1,127,7,0,False
22,embedding_mental_LR,Violation,V2,inner,True,False,True_False,SSP,CORRECT_INC,CORRECT,1,165,7,0,False
22,embedding_mental_LR,Violation,V2,inner,True,False,True_False,SSP,CORRECT_INC,CORRECT,1,253,7,0,False
22,embedding_mental_LR,Violation,V2,inner,True,False,True_False,SSP,CORRECT_INC,CORRECT,1,97,7,0,False
22,embedding_mental_LR,Violation,V2,inner,True,False,True_False,SSP,WRONG,WRONG,1,59,7,0,False
22,embedding_mental_LR,Violation,V2,inner,True,True,True_True,PPP,CORRECT,CORRECT,1,180,7,0.59084,False
22,embedding_mental_LR,Violation,V2,inner,True,True,True_True,PPP,CORRECT_INC,CORRECT,1,108,7,0,False
22,embedding_mental_LR,Violation,V2,inner,True,True,True_True,PPP,CORRECT_INC,CORRECT,1,181,7,0,False
22,embedding_mental_LR,Violation,V2,inner,True,True,True_True,PPP,CORRECT_INC,CORRECT,1,262,7,0,False
22,embedding_mental_LR,Violation,V2,inner,True,True,True_True,PPP,CORRECT_INC,CORRECT,1,36,7,0,False
22,embedding_mental_LR,Violation,V2,inner,True,True,True_True,SSS,CORRECT_INC,CORRECT,1,109,7,0,False
22,embedding_mental_LR,Violation,V2,inner,True,True,True_True,SSS,CORRECT_INC,CORRECT,1,138,7,0,False
22,embedding_mental_LR,Violation,V2,inner,True,True,True_True,SSS,CORRECT_INC,CORRECT,1,171,7,0,False
22,embedding_mental_LR,Violation,V2,inner,True,True,True_True,SSS,CORRECT_INC,CORRECT,1,196,7,0,False
22,embedding_mental_LR,Violation,V2,inner,True,True,True_True,SSS,CORRECT_INC,CORRECT,1,243,7,0,False
22,embedding_mental_SR,Acceptable,None,other,False,,,PS,CORRECT,CORRECT,1,166,0,0,False
22,embedding_mental_SR,Acceptable,None,other,False,,,PS,CORRECT,CORRECT,1,51,0,0,False
22,embedding_mental_SR,Acceptable,None,other,False,,,PS,CORRECT,CORRECT,1,60,0,0,False
22,embedding_mental_SR,Acceptable,None,other,False,,,PS,CORRECT_INC,CORRECT,1,200,0,0,False
22,embedding_mental_SR,Acceptable,None,other,False,,,PS,CORRECT_INC,CORRECT,1,221,0,0,False
22,embedding_mental_SR,Acceptable,None,other,False,,,SP,CORRECT,CORRECT,1,184,0,0,False
22,embedding_mental_SR,Acceptable,None,other,False,,,SP,CORRECT,CORRECT,1,227,0,0,False
22,embedding_mental_SR,Acceptable,None,other,False,,,SP,CORRECT,CORRECT,1,256,0,0,False
22,embedding_mental_SR,Acceptable,None,other,False,,,SP,CORRECT,CORRECT,1,38,0,0,False
22,embedding_mental_SR,Acceptable,None,other,False,,,SP,CORRECT_INC,CORRECT,1,192,0,0,False
22,embedding_mental_SR,Acceptable,None,other,True,,,PP,CORRECT,CORRECT,1,159,0,0,False
22,embedding_mental_SR,Acceptable,None,other,True,,,PP,CORRECT,CORRECT,1,270,0,0,False
22,embedding_mental_SR,Acceptable,None,other,True,,,PP,CORRECT,CORRECT,1,88,0,0,False
22,embedding_mental_SR,Acceptable,None,other,True,,,PP,CORRECT_INC,CORRECT,1,179,0,0,False
22,embedding_mental_SR,Acceptable,None,other,True,,,PP,CORRECT_INC,CORRECT,1,182,0,0,False
22,embedding_mental_SR,Acceptable,None,other,True,,,SS,CORRECT,CORRECT,1,192,0,0,False
22,embedding_mental_SR,Acceptable,None,other,True,,,SS,CORRECT,CORRECT,1,22,0,0,False
22,embedding_mental_SR,Acceptable,None,other,True,,,SS,CORRECT,CORRECT,1,67,0,0,False
22,embedding_mental_SR,Acceptable,None,other,True,,,SS,CORRECT,CORRECT,1,68,0,0,False
22,embedding_mental_SR,Acceptable,None,other,True,,,SS,WRONG_INC,WRONG,1,239,0,0,False
22,embedding_mental_SR,Filler,N1,other,False,,,PS,CORRECT_INC,CORRECT,1,264,-1,0,False
22,embedding_mental_SR,Filler,N1,other,False,,,PS,CORRECT_INC,CORRECT,1,71,-1,0,False
22,embedding_mental_SR,Filler,N1,other,False,,,SP,CORRECT_INC,CORRECT,1,11,-1,0,False
22,embedding_mental_SR,Filler,N1,other,False,,,SP,CORRECT_INC,CORRECT,1,52,-1,0,False
22,embedding_mental_SR,Filler,N1,other,True,,,PP,CORRECT_INC,CORRECT,1,181,-1,0,False
22,embedding_mental_SR,Filler,V2,inner,False,,,PS,CORRECT_INC,CORRECT,1,100,-5,0,False
22,embedding_mental_SR,Filler,V2,inner,False,,,PS,CORRECT_INC,CORRECT,1,122,-5,0,False
22,embedding_mental_SR,Filler,V2,inner,False,,,PS,CORRECT_INC,CORRECT,1,263,-5,0,False
22,embedding_mental_SR,Filler,V2,inner,False,,,PS,CORRECT_INC,CORRECT,1,4,-5,0,False
22,embedding_mental_SR,Filler,V2,inner,False,,,SP,CORRECT_INC,CORRECT,1,203,-5,0,False
22,embedding_mental_SR,Filler,V2,inner,False,,,SP,CORRECT_INC,CORRECT,1,259,-5,0,False
22,embedding_mental_SR,Filler,V2,inner,False,,,SP,CORRECT_INC,CORRECT,1,63,-5,0,False
22,embedding_mental_SR,Filler,V2,inner,True,,,PP,CORRECT_INC,CORRECT,1,135,-5,0,False
22,embedding_mental_SR,Filler,V2,inner,True,,,PP,CORRECT_INC,CORRECT,1,159,-5,0,False
22,embedding_mental_SR,Filler,V2,inner,True,,,PP,CORRECT_INC,CORRECT,1,32,-5,0,False
22,embedding_mental_SR,Filler,V2,inner,True,,,SS,CORRECT_INC,CORRECT,1,205,-5,0,False
22,embedding_mental_SR,Filler,V2,inner,True,,,SS,CORRECT_INC,CORRECT,1,52,-5,0,False
22,embedding_mental_SR,Filler,V2,inner,True,,,SS,CORRECT_INC,CORRECT,1,86,-5,0,False
22,embedding_mental_SR,Filler,V2,inner,True,,,SS,CORRECT_INC,CORRECT,1,92,-5,0,False
22,embedding_mental_SR,Filler,V2,inner,True,,,SS,WRONG,WRONG,1,108,-5,0,False
22,embedding_mental_SR,Violation,V2,inner,False,,,PS,CORRECT_INC,CORRECT,1,183,5,0,False
22,embedding_mental_SR,Violation,V2,inner,False,,,PS,CORRECT_INC,CORRECT,1,205,5,0,False
22,embedding_mental_SR,Violation,V2,inner,False,,,PS,CORRECT_INC,CORRECT,1,25,5,0,False
22,embedding_mental_SR,Violation,V2,inner,False,,,PS,CORRECT_INC,CORRECT,1,88,5,0,False
22,embedding_mental_SR,Violation,V2,inner,False,,,PS,WRONG_DDC,REJECTED,1,176,5,0,False
22,embedding_mental_SR,Violation,V2,inner,False,,,SP,CORRECT_INC,CORRECT,1,1,5,0,False
22,embedding_mental_SR,Violation,V2,inner,False,,,SP,CORRECT_INC,CORRECT,1,153,5,0,False
22,embedding_mental_SR,Violation,V2,inner,False,,,SP,CORRECT_INC,CORRECT,1,236,5,0,False
22,embedding_mental_SR,Violation,V2,inner,False,,,SP,CORRECT_INC,CORRECT,1,257,5,0,False
22,embedding_mental_SR,Violation,V2,inner,False,,,SP,CORRECT_INC,CORRECT,1,55,5,0,False
22,embedding_mental_SR,Violation,V2,inner,True,,,PP,CORRECT_INC,CORRECT,1,129,5,0,False
22,embedding_mental_SR,Violation,V2,inner,True,,,PP,CORRECT_INC,CORRECT,1,146,5,0,False
22,embedding_mental_SR,Violation,V2,inner,True,,,PP,CORRECT_INC,CORRECT,1,48,5,0,False
22,embedding_mental_SR,Violation,V2,inner,True,,,PP,CORRECT_INC,CORRECT,1,67,5,0,False
22,embedding_mental_SR,Violation,V2,inner,True,,,PP,WRONG_DDC,REJECTED,1,263,5,0,False
22,embedding_mental_SR,Violation,V2,inner,True,,,SS,CORRECT_INC,CORRECT,1,126,5,0,False
22,embedding_mental_SR,Violation,V2,inner,True,,,SS,CORRECT_INC,CORRECT,1,173,5,0,False
22,embedding_mental_SR,Violation,V2,inner,True,,,SS,CORRECT_INC,CORRECT,1,261,5,0,False
22,embedding_mental_SR,Violation,V2,inner,True,,,SS,CORRECT_INC,CORRECT,1,42,5,0,False
22,embedding_mental_SR,Violation,V2,inner,True,,,SS,CORRECT_INC,CORRECT,1,66,5,0,False
22,objrel,Acceptable,None,other,False,,,PS,CORRECT,CORRECT,1,111,0,0,False
22,objrel,Acceptable,None,other,False,,,PS,CORRECT,CORRECT,1,126,0,0,False
22,objrel,Acceptable,None,other,False,,,PS,CORRECT,CORRECT,1,198,0,0,False
22,objrel,Acceptable,None,other,False,,,PS,CORRECT,CORRECT,1,209,0,0,False
22,objrel,Acceptable,None,other,False,,,PS,CORRECT,CORRECT,1,39,0,0,False
22,objrel,Acceptable,None,other,False,,,PS,CORRECT,CORRECT,1,41,0,0,False
22,objrel,Acceptable,None,other,False,,,PS,CORRECT,CORRECT,1,61,0,0,False
22,objrel,Acceptable,None,other,False,,,PS,CORRECT,CORRECT,1,82,0,0,False
22,objrel,Acceptable,None,other,False,,,PS,CORRECT_INC,CORRECT,1,90,0,0,False
22,objrel,Acceptable,None,other,False,,,PS,WRONG_INC,WRONG,1,243,0,0,False
22,objrel,Acceptable,None,other,False,,,SP,CORRECT,CORRECT,1,115,0,0,False
22,objrel,Acceptable,None,other,False,,,SP,CORRECT,CORRECT,1,141,0,0,False
22,objrel,Acceptable,None,other,False,,,SP,CORRECT,CORRECT,1,24,0,0,False
22,objrel,Acceptable,None,other,False,,,SP,CORRECT,CORRECT,1,241,0,0,False
22,objrel,Acceptable,None,other,False,,,SP,CORRECT,CORRECT,1,65,0,0,False
22,objrel,Acceptable,None,other,False,,,SP,CORRECT_DDC,REJECTED,1,112,0,0,False
22,objrel,Acceptable,None,other,False,,,SP,CORRECT_INC,CORRECT,1,26,0,0,False
22,objrel,Acceptable,None,other,False,,,SP,WRONG_INC,WRONG,1,216,0,0,False
22,objrel,Acceptable,None,other,False,,,SP,WRONG_INC,WRONG,1,233,0,0,False
22,objrel,Acceptable,None,other,False,,,SP,WRONG_INC,WRONG,1,240,0,0,False
22,objrel,Acceptable,None,other,True,,,PP,CORRECT,CORRECT,1,127,0,0,False
22,objrel,Acceptable,None,other,True,,,PP,CORRECT,CORRECT,1,132,0,0,False
22,objrel,Acceptable,None,other,True,,,PP,CORRECT,CORRECT,1,133,0,0,False
22,objrel,Acceptable,None,other,True,,,PP,CORRECT,CORRECT,1,262,0,0,False
22,objrel,Acceptable,None,other,True,,,PP,CORRECT,CORRECT,1,93,0,0,False
22,objrel,Acceptable,None,other,True,,,PP,CORRECT_INC,CORRECT,1,191,0,0,False
22,objrel,Acceptable,None,other,True,,,PP,CORRECT_INC,CORRECT,1,236,0,0,False
22,objrel,Acceptable,None,other,True,,,PP,WRONG_INC,WRONG,1,148,0,0,False
22,objrel,Acceptable,None,other,True,,,PP,WRONG_INC,WRONG,1,232,0,0,False
22,objrel,Acceptable,None,other,True,,,PP,WRONG_INC,WRONG,1,239,0,0,False
22,objrel,Acceptable,None,other,True,,,SS,CORRECT,CORRECT,1,104,0,0,False
22,objrel,Acceptable,None,other,True,,,SS,CORRECT,CORRECT,1,160,0,0,False
22,objrel,Acceptable,None,other,True,,,SS,CORRECT,CORRECT,1,164,0,0,False
22,objrel,Acceptable,None,other,True,,,SS,CORRECT,CORRECT,1,18,0,0,False
22,objrel,Acceptable,None,other,True,,,SS,CORRECT,CORRECT,1,35,0,0,False
22,objrel,Acceptable,None,other,True,,,SS,CORRECT,CORRECT,1,6,0,0,False
22,objrel,Acceptable,None,other,True,,,SS,CORRECT,CORRECT,1,73,0,0,False
22,objrel,Acceptable,None,other,True,,,SS,CORRECT,CORRECT,1,8,0,0,False
22,objrel,Acceptable,None,other,True,,,SS,CORRECT,CORRECT,1,85,0,0,False
22,objrel,Acceptable,None,other,True,,,SS,CORRECT_INC,CORRECT,1,237,0,0,False
22,objrel,Filler,N1,other,False,,,PS,CORRECT_INC,CORRECT,1,10,-1,0,False
22,objrel,Filler,N1,other,False,,,PS,CORRECT_INC,CORRECT,1,157,-1,0,False
22,objrel,Filler,N1,other,False,,,PS,CORRECT_INC,CORRECT,1,200,-1,0,False
22,objrel,Filler,N1,other,False,,,PS,WRONG_INC,WRONG,1,101,-1,4.0276,False
22,objrel,Filler,N1,other,False,,,SP,CORRECT_INC,CORRECT,1,113,-1,0,False
22,objrel,Filler,N1,other,False,,,SP,CORRECT_INC,CORRECT,1,139,-1,0,False
22,objrel,Filler,N1,other,False,,,SP,CORRECT_INC,CORRECT,1,33,-1,0,False
22,objrel,Filler,N1,other,False,,,SP,WRONG,WRONG,1,230,-1,0,False
22,objrel,Filler,N1,other,True,,,SS,CORRECT_INC,CORRECT,1,154,-1,0,False
22,objrel,Filler,N1,other,True,,,SS,CORRECT_INC,CORRECT,1,210,-1,0,False
22,objrel,Filler,V1,inner,False,,,PS,CORRECT_INC,CORRECT,1,161,-4,0,False
22,objrel,Filler,V1,inner,False,,,PS,CORRECT_INC,CORRECT,1,30,-4,0,False
22,objrel,Filler,V1,inner,False,,,PS,CORRECT_INC,CORRECT,1,44,-4,0,False
22,objrel,Filler,V1,inner,False,,,SP,CORRECT_INC,CORRECT,1,138,-4,0,False
22,objrel,Filler,V1,inner,False,,,SP,CORRECT_INC,CORRECT,1,34,-4,0,False
22,objrel,Filler,V1,inner,False,,,SP,CORRECT_INC,CORRECT,1,95,-4,0,False
22,objrel,Filler,V1,inner,True,,,PP,CORRECT_INC,CORRECT,1,105,-4,0,False
22,objrel,Filler,V1,inner,True,,,PP,CORRECT_INC,CORRECT,1,130,-4,0,False
22,objrel,Filler,V1,inner,True,,,PP,CORRECT_INC,CORRECT,1,169,-4,0,False
22,objrel,Filler,V1,inner,True,,,PP,CORRECT_INC,CORRECT,1,22,-4,0,False
22,objrel,Filler,V1,inner,True,,,PP,CORRECT_INC,CORRECT,1,42,-4,0,False
22,objrel,Filler,V1,inner,True,,,PP,CORRECT_INC,CORRECT,1,47,-4,0,False
22,objrel,Filler,V1,inner,True,,,SS,CORRECT_INC,CORRECT,1,132,-4,0,False
22,objrel,Filler,V1,inner,True,,,SS,CORRECT_INC,CORRECT,1,155,-4,0,False
22,objrel,Filler,V1,inner,True,,,SS,CORRECT_INC,CORRECT,1,202,-4,0,False
22,objrel,Filler,V2,outer,False,,,PS,CORRECT_INC,CORRECT,1,164,-5,0,False
22,objrel,Filler,V2,outer,False,,,PS,CORRECT_INC,CORRECT,1,250,-5,0,False
22,objrel,Filler,V2,outer,False,,,PS,CORRECT_INC,CORRECT,1,4,-5,0,False
22,objrel,Filler,V2,outer,False,,,SP,CORRECT_INC,CORRECT,1,128,-5,0,False
22,objrel,Filler,V2,outer,False,,,SP,CORRECT_INC,CORRECT,1,156,-5,0,False
22,objrel,Filler,V2,outer,False,,,SP,CORRECT_INC,CORRECT,1,70,-5,0,False
22,objrel,Filler,V2,outer,False,,,SP,CORRECT_INC,CORRECT,1,91,-5,0,False
22,objrel,Filler,V2,outer,True,,,PP,CORRECT_INC,CORRECT,1,118,-5,0,False
22,objrel,Filler,V2,outer,True,,,PP,CORRECT_INC,CORRECT,1,209,-5,0,False
22,objrel,Filler,V2,outer,True,,,PP,CORRECT_INC,CORRECT,1,223,-5,0,False
22,objrel,Filler,V2,outer,True,,,PP,CORRECT_INC,CORRECT,1,248,-5,0,False
22,objrel,Filler,V2,outer,True,,,PP,CORRECT_INC,CORRECT,1,266,-5,0,False
22,objrel,Filler,V2,outer,True,,,SS,CORRECT_INC,CORRECT,1,154,-5,0,False
22,objrel,Filler,V2,outer,True,,,SS,CORRECT_INC,CORRECT,1,23,-5,0,False
22,objrel,Filler,V2,outer,True,,,SS,CORRECT_INC,CORRECT,1,260,-5,0,False
22,objrel,Violation,V1,inner,False,,,PS,CORRECT_INC,CORRECT,1,169,4,0,False
22,objrel,Violation,V1,inner,False,,,PS,CORRECT_INC,CORRECT,1,72,4,0,False
22,objrel,Violation,V1,inner,False,,,PS,CORRECT_INC,CORRECT,1,79,4,0,False
22,objrel,Violation,V1,inner,False,,,PS,CORRECT_INC,CORRECT,1,83,4,0,False
22,objrel,Violation,V1,inner,False,,,PS,WRONG,WRONG,1,15,4,0,False
22,objrel,Violation,V1,inner,False,,,SP,CORRECT_INC,CORRECT,1,225,4,0,False
22,objrel,Violation,V1,inner,False,,,SP,CORRECT_INC,CORRECT,1,226,4,0,False
22,objrel,Violation,V1,inner,False,,,SP,CORRECT_INC,CORRECT,1,245,4,0,False
22,objrel,Violation,V1,inner,False,,,SP,CORRECT_INC,CORRECT,1,267,4,0,False
22,objrel,Violation,V1,inner,False,,,SP,CORRECT_INC,CORRECT,1,267,4,0,False
22,objrel,Violation,V1,inner,True,,,PP,CORRECT_INC,CORRECT,1,137,4,0,False
22,objrel,Violation,V1,inner,True,,,PP,CORRECT_INC,CORRECT,1,147,4,0,False
22,objrel,Violation,V1,inner,True,,,PP,CORRECT_INC,CORRECT,1,17,4,0,False
22,objrel,Violation,V1,inner,True,,,PP,CORRECT_INC,CORRECT,1,249,4,0,False
22,objrel,Violation,V1,inner,True,,,PP,WRONG,WRONG,1,255,4,0,False
22,objrel,Violation,V1,inner,True,,,SS,CORRECT_INC,CORRECT,1,189,4,0,False
22,objrel,Violation,V1,inner,True,,,SS,CORRECT_INC,CORRECT,1,91,4,0,False
22,objrel,Violation,V1,inner,True,,,SS,CORRECT_INC,CORRECT,1,93,4,0,False
22,objrel,Violation,V1,inner,True,,,SS,WRONG,WRONG,1,193,4,0,False
22,objrel,Violation,V1,inner,True,,,SS,WRONG,WRONG,1,6,4,0,False
22,objrel,Violation,V2,outer,False,,,PS,CORRECT_INC,CORRECT,1,162,5,0,False
22,objrel,Violation,V2,outer,False,,,PS,CORRECT_INC,CORRECT,1,207,5,0,False
22,objrel,Violation,V2,outer,False,,,PS,CORRECT_INC,CORRECT,1,231,5,0,False
22,objrel,Violation,V2,outer,False,,,PS,CORRECT_INC,CORRECT,1,247,5,0,False
22,objrel,Violation,V2,outer,False,,,PS,WRONG,WRONG,1,246,5,0,False
22,objrel,Violation,V2,outer,False,,,SP,CORRECT_INC,CORRECT,1,123,5,0,False
22,objrel,Violation,V2,outer,False,,,SP,CORRECT_INC,CORRECT,1,175,5,0,False
22,objrel,Violation,V2,outer,False,,,SP,CORRECT_INC,CORRECT,1,212,5,0,False
22,objrel,Violation,V2,outer,False,,,SP,CORRECT_INC,CORRECT,1,233,5,0,False
22,objrel,Violation,V2,outer,False,,,SP,CORRECT_INC,CORRECT,1,265,5,0,False
22,objrel,Violation,V2,outer,True,,,PP,CORRECT_INC,CORRECT,1,107,5,0,False
22,objrel,Violation,V2,outer,True,,,PP,CORRECT_INC,CORRECT,1,14,5,0,False
22,objrel,Violation,V2,outer,True,,,PP,CORRECT_INC,CORRECT,1,187,5,0,False
22,objrel,Violation,V2,outer,True,,,PP,CORRECT_INC,CORRECT,1,219,5,0,False
22,objrel,Violation,V2,outer,True,,,PP,WRONG,WRONG,1,269,5,0,False
22,objrel,Violation,V2,outer,True,,,SS,CORRECT_INC,CORRECT,1,114,5,0,False
22,objrel,Violation,V2,outer,True,,,SS,CORRECT_INC,CORRECT,1,141,5,0,False
22,objrel,Violation,V2,outer,True,,,SS,CORRECT_INC,CORRECT,1,174,5,0,False
22,objrel,Violation,V2,outer,True,,,SS,CORRECT_INC,CORRECT,1,179,5,0,False
22,objrel,Violation,V2,outer,True,,,SS,CORRECT_INC,CORRECT,1,69,5,0,False
22,objrel_nounpp,Acceptable,None,other,False,False,False_False,PSP,CORRECT,CORRECT,1,120,0,0,False
22,objrel_nounpp,Acceptable,None,other,False,False,False_False,PSP,CORRECT,CORRECT,1,161,0,0,False
22,objrel_nounpp,Acceptable,None,other,False,False,False_False,PSP,CORRECT,CORRECT,1,268,0,0,False
22,objrel_nounpp,Acceptable,None,other,False,False,False_False,PSP,CORRECT,CORRECT,1,56,0,0,False
22,objrel_nounpp,Acceptable,None,other,False,False,False_False,PSP,CORRECT,CORRECT,1,63,0,0,False
22,objrel_nounpp,Acceptable,None,other,False,False,False_False,PSP,CORRECT_INC,CORRECT,1,201,0,0,False
22,objrel_nounpp,Acceptable,None,other,False,False,False_False,PSP,CORRECT_INC,CORRECT,1,221,0,0,False
22,objrel_nounpp,Acceptable,None,other,False,False,False_False,PSP,CORRECT_INC,CORRECT,1,240,0,0,False
22,objrel_nounpp,Acceptable,None,other,False,False,False_False,PSP,WRONG_INC,WRONG,1,229,0,0,False
22,objrel_nounpp,Acceptable,None,other,False,False,False_False,PSP,WRONG_INC,WRONG,1,73,0,0,False
22,objrel_nounpp,Acceptable,None,other,False,False,False_False,SPS,CORRECT,CORRECT,1,222,0,0,False
22,objrel_nounpp,Acceptable,None,other,False,False,False_False,SPS,CORRECT,CORRECT,1,8,0,0,False
22,objrel_nounpp,Acceptable,None,other,False,False,False_False,SPS,CORRECT,CORRECT,1,84,0,0,False
22,objrel_nounpp,Acceptable,None,other,False,False,False_False,SPS,CORRECT_INC,CORRECT,1,157,0,0,False
22,objrel_nounpp,Acceptable,None,other,False,False,False_False,SPS,WRONG_INC,WRONG,1,111,0,0,False
22,objrel_nounpp,Acceptable,None,other,False,False,False_False,SPS,WRONG_INC,WRONG,1,135,0,0,False
22,objrel_nounpp,Acceptable,None,other,False,False,False_False,SPS,WRONG_INC,WRONG,1,145,0,0,False
22,objrel_nounpp,Acceptable,None,other,False,False,False_False,SPS,WRONG_INC,WRONG,1,180,0,0,False
22,objrel_nounpp,Acceptable,None,other,False,False,False_False,SPS,WRONG_INC,WRONG,1,258,0,0,False
22,objrel_nounpp,Acceptable,None,other,False,False,False_False,SPS,WRONG_INC,WRONG,1,68,0,0,False
22,objrel_nounpp,Acceptable,None,other,False,True,False_True,PSS,CORRECT,CORRECT,1,106,0,0,False
22,objrel_nounpp,Acceptable,None,other,False,True,False_True,PSS,CORRECT,CORRECT,1,112,0,0,False
22,objrel_nounpp,Acceptable,None,other,False,True,False_True,PSS,CORRECT,CORRECT,1,113,0,0,False
22,objrel_nounpp,Acceptable,None,other,False,True,False_True,PSS,CORRECT,CORRECT,1,117,0,0,False
22,objrel_nounpp,Acceptable,None,other,False,True,False_True,PSS,CORRECT,CORRECT,1,158,0,0,False
22,objrel_nounpp,Acceptable,None,other,False,True,False_True,PSS,CORRECT,CORRECT,1,166,0,0,False
22,objrel_nounpp,Acceptable,None,other,False,True,False_True,PSS,CORRECT,CORRECT,1,230,0,0,False
22,objrel_nounpp,Acceptable,None,other,False,True,False_True,PSS,CORRECT,CORRECT,1,27,0,0,False
22,objrel_nounpp,Acceptable,None,other,False,True,False_True,PSS,CORRECT_INC,CORRECT,1,168,0,0,False
22,objrel_nounpp,Acceptable,None,other,False,True,False_True,PSS,WRONG_INC,WRONG,1,231,0,0,False
22,objrel_nounpp,Acceptable,None,other,False,True,False_True,SPP,CORRECT,CORRECT,1,125,0,0,False
22,objrel_nounpp,Acceptable,None,other,False,True,False_True,SPP,CORRECT,CORRECT,1,133,0,0,False
22,objrel_nounpp,Acceptable,None,other,False,True,False_True,SPP,CORRECT,CORRECT,1,227,0,0,False
22,objrel_nounpp,Acceptable,None,other,False,True,False_True,SPP,CORRECT,CORRECT,1,247,0,0,False
22,objrel_nounpp,Acceptable,None,other,False,True,False_True,SPP,CORRECT,CORRECT,1,65,0,0,False
22,objrel_nounpp,Acceptable,None,other,False,True,False_True,SPP,CORRECT,CORRECT,1,79,0,0,False
22,objrel_nounpp,Acceptable,None,other,False,True,False_True,SPP,CORRECT,CORRECT,1,82,0,0,False
22,objrel_nounpp,Acceptable,None,other,False,True,False_True,SPP,WRONG_INC,WRONG,1,134,0,0,False
22,objrel_nounpp,Acceptable,None,other,False,True,False_True,SPP,WRONG_INC,WRONG,1,203,0,0,False
22,objrel_nounpp,Acceptable,None,other,False,True,False_True,SPP,WRONG_INC,WRONG,1,3,0,0,False
22,objrel_nounpp,Acceptable,None,other,True,False,True_False,PPS,CORRECT,CORRECT,1,255,0,0,False
22,objrel_nounpp,Acceptable,None,other,True,False,True_False,PPS,CORRECT,CORRECT,1,5,0,0,False
22,objrel_nounpp,Acceptable,None,other,True,False,True_False,PPS,CORRECT_INC,CORRECT,1,178,0,0,False
22,objrel_nounpp,Acceptable,None,other,True,False,True_False,PPS,WRONG_INC,WRONG,1,131,0,0,False
22,objrel_nounpp,Acceptable,None,other,True,False,True_False,PPS,WRONG_INC,WRONG,1,185,0,0,False
22,objrel_nounpp,Acceptable,None,other,True,False,True_False,PPS,WRONG_INC,WRONG,1,188,0,0,False
22,objrel_nounpp,Acceptable,None,other,True,False,True_False,PPS,WRONG_INC,WRONG,1,190,0,0,False
22,objrel_nounpp,Acceptable,None,other,True,False,True_False,PPS,WRONG_INC,WRONG,1,235,0,0,False
22,objrel_nounpp,Acceptable,None,other,True,False,True_False,PPS,WRONG_INC,WRONG,1,241,0,0,False
22,objrel_nounpp,Acceptable,None,other,True,False,True_False,PPS,WRONG_INC,WRONG,1,28,0,0,False
22,objrel_nounpp,Acceptable,None,other,True,False,True_False,SSP,CORRECT,CORRECT,1,155,0,0,False
22,objrel_nounpp,Acceptable,None,other,True,False,True_False,SSP,CORRECT,CORRECT,1,182,0,0,False
22,objrel_nounpp,Acceptable,None,other,True,False,True_False,SSP,CORRECT,CORRECT,1,188,0,0,False
22,objrel_nounpp,Acceptable,None,other,True,False,True_False,SSP,CORRECT,CORRECT,1,218,0,0,False
22,objrel_nounpp,Acceptable,None,other,True,False,True_False,SSP,CORRECT,CORRECT,1,220,0,0,False
22,objrel_nounpp,Acceptable,None,other,True,False,True_False,SSP,CORRECT,CORRECT,1,27,0,0,False
22,objrel_nounpp,Acceptable,None,other,True,False,True_False,SSP,CORRECT,CORRECT,1,51,0,0,False
22,objrel_nounpp,Acceptable,None,other,True,False,True_False,SSP,CORRECT,CORRECT,1,94,0,0,False
22,objrel_nounpp,Acceptable,None,other,True,False,True_False,SSP,WRONG_INC,WRONG,1,140,0,0,False
22,objrel_nounpp,Acceptable,None,other,True,False,True_False,SSP,WRONG_INC,WRONG,1,70,0,0,False
22,objrel_nounpp,Acceptable,None,other,True,True,True_True,PPP,CORRECT,CORRECT,1,136,0,0,False
22,objrel_nounpp,Acceptable,None,other,True,True,True_True,PPP,CORRECT,CORRECT,1,81,0,0,False
22,objrel_nounpp,Acceptable,None,other,True,True,True_True,PPP,CORRECT,CORRECT,1,95,0,0,False
22,objrel_nounpp,Acceptable,None,other,True,True,True_True,PPP,WRONG_INC,WRONG,1,1,0,0,False
22,objrel_nounpp,Acceptable,None,other,True,True,True_True,PPP,WRONG_INC,WRONG,1,156,0,0,False
22,objrel_nounpp,Acceptable,None,other,True,True,True_True,PPP,WRONG_INC,WRONG,1,173,0,0,False
22,objrel_nounpp,Acceptable,None,other,True,True,True_True,PPP,WRONG_INC,WRONG,1,199,0,0,False
22,objrel_nounpp,Acceptable,None,other,True,True,True_True,PPP,WRONG_INC,WRONG,1,204,0,0,False
22,objrel_nounpp,Acceptable,None,other,True,True,True_True,PPP,WRONG_INC,WRONG,1,220,0,0,False
22,objrel_nounpp,Acceptable,None,other,True,True,True_True,PPP,WRONG_INC,WRONG,1,35,0,0,False
22,objrel_nounpp,Acceptable,None,other,True,True,True_True,SSS,CORRECT,CORRECT,1,10,0,0,False
22,objrel_nounpp,Acceptable,None,other,True,True,True_True,SSS,CORRECT,CORRECT,1,13,0,0,False
22,objrel_nounpp,Acceptable,None,other,True,True,True_True,SSS,CORRECT,CORRECT,1,142,0,0,False
22,objrel_nounpp,Acceptable,None,other,True,True,True_True,SSS,CORRECT,CORRECT,1,144,0,0,False
22,objrel_nounpp,Acceptable,None,other,True,True,True_True,SSS,CORRECT,CORRECT,1,34,0,0,False
22,objrel_nounpp,Acceptable,None,other,True,True,True_True,SSS,CORRECT,CORRECT,1,36,0,0,False
22,objrel_nounpp,Acceptable,None,other,True,True,True_True,SSS,CORRECT,CORRECT,1,41,0,0,False
22,objrel_nounpp,Acceptable,None,other,True,True,True_True,SSS,CORRECT_INC,CORRECT,1,121,0,0,False
22,objrel_nounpp,Acceptable,None,other,True,True,True_True,SSS,CORRECT_INC,CORRECT,1,270,0,0,False
22,objrel_nounpp,Acceptable,None,other,True,True,True_True,SSS,CORRECT_INC,CORRECT,1,32,0,0,False
22,objrel_nounpp,Filler,N1,other,False,True,False_True,SPP,CORRECT_INC,CORRECT,1,147,-1,0,False
22,objrel_nounpp,Filler,N1,other,False,True,False_True,SPP,CORRECT_INC,CORRECT,1,269,-1,0,False
22,objrel_nounpp,Filler,N1,other,False,True,False_True,SPP,CORRECT_INC,CORRECT,1,38,-1,0,False
22,objrel_nounpp,Filler,N1,other,True,False,True_False,SSP,CORRECT_INC,CORRECT,1,238,-1,0,False
22,objrel_nounpp,Filler,N1,other,True,False,True_False,SSP,CORRECT_INC,CORRECT,1,29,-1,0,False
22,objrel_nounpp,Filler,N1,other,True,False,True_False,SSP,CORRECT_INC,CORRECT,1,37,-1,0,False
22,objrel_nounpp,Filler,N1,other,True,True,True_True,PPP,CORRECT_INC,CORRECT,1,248,-1,0,False
22,objrel_nounpp,Filler,N1,other,True,True,True_True,PPP,CORRECT_INC,CORRECT,1,45,-1,0,False
22,objrel_nounpp,Filler,N1,other,True,True,True_True,SSS,CORRECT_INC,CORRECT,1,264,-1,0,False
22,objrel_nounpp,Filler,N1,other,True,True,True_True,SSS,CORRECT_INC,CORRECT,1,45,-1,0,False
22,objrel_nounpp,Filler,N2,other,False,False,False_False,PSP,CORRECT_INC,CORRECT,1,129,-3,0,False
22,objrel_nounpp,Filler,N2,other,False,False,False_False,PSP,CORRECT_INC,CORRECT,1,162,-3,0,False
22,objrel_nounpp,Filler,N2,other,False,False,False_False,PSP,CORRECT_INC,CORRECT,1,196,-3,0,False
22,objrel_nounpp,Filler,N2,other,False,False,False_False,SPS,CORRECT_INC,CORRECT,1,66,-3,0,False
22,objrel_nounpp,Filler,N2,other,False,True,False_True,SPP,CORRECT_INC,CORRECT,1,140,-3,0,False
22,objrel_nounpp,Filler,N2,other,False,True,False_True,SPP,CORRECT_INC,CORRECT,1,48,-3,0,False
22,objrel_nounpp,Filler,N2,other,False,True,False_True,SPP,WRONG_DDC,REJECTED,1,197,-3,0,False
22,objrel_nounpp,Filler,N2,other,True,False,True_False,PPS,CORRECT_INC,CORRECT,1,118,-3,0,False
22,objrel_nounpp,Filler,N2,other,True,False,True_False,PPS,CORRECT_INC,CORRECT,1,256,-3,0,False
22,objrel_nounpp,Filler,N2,other,True,False,True_False,PPS,CORRECT_INC,CORRECT,1,86,-3,0,False
22,objrel_nounpp,Filler,V1,inner,False,False,False_False,PSP,CORRECT_INC,CORRECT,1,31,-7,0,False
22,objrel_nounpp,Filler,V1,inner,False,False,False_False,PSP,CORRECT_INC,CORRECT,1,97,-7,0,False
22,objrel_nounpp,Filler,V1,inner,False,False,False_False,PSP,WRONG,WRONG,1,21,-7,0,False
22,objrel_nounpp,Filler,V1,inner,False,False,False_False,PSP,WRONG,WRONG,1,251,-7,0,False
22,objrel_nounpp,Filler,V1,inner,False,False,False_False,SPS,CORRECT_INC,CORRECT,1,125,-7,0,False
22,objrel_nounpp,Filler,V1,inner,False,False,False_False,SPS,CORRECT_INC,CORRECT,1,153,-7,0,False
22,objrel_nounpp,Filler,V1,inner,False,False,False_False,SPS,CORRECT_INC,CORRECT,1,77,-7,0,False
22,objrel_nounpp,Filler,V1,inner,False,False,False_False,SPS,CORRECT_INC,CORRECT,1,78,-7,0,False
22,objrel_nounpp,Filler,V1,inner,False,False,False_False,SPS,CORRECT_INC,CORRECT,1,80,-7,0,False
22,objrel_nounpp,Filler,V1,inner,False,True,False_True,PSS,CORRECT_INC,CORRECT,1,102,-7,0,False
22,objrel_nounpp,Filler,V1,inner,False,True,False_True,PSS,CORRECT_INC,CORRECT,1,90,-7,0,False
22,objrel_nounpp,Filler,V1,inner,False,True,False_True,PSS,CORRECT_INC,CORRECT,1,94,-7,0,False
22,objrel_nounpp,Filler,V1,inner,False,True,False_True,SPP,CORRECT_INC,CORRECT,1,100,-7,0,False
22,objrel_nounpp,Filler,V1,inner,False,True,False_True,SPP,CORRECT_INC,CORRECT,1,106,-7,0,False
22,objrel_nounpp,Filler,V1,inner,False,True,False_True,SPP,CORRECT_INC,CORRECT,1,98,-7,0,False
22,objrel_nounpp,Filler,V1,inner,True,False,True_False,PPS,CORRECT_INC,CORRECT,1,115,-7,0,False
22,objrel_nounpp,Filler,V1,inner,True,False,True_False,SSP,CORRECT_INC,CORRECT,1,144,-7,0,False
22,objrel_nounpp,Filler,V1,inner,True,False,True_False,SSP,CORRECT_INC,CORRECT,1,185,-7,0,False
22,objrel_nounpp,Filler,V1,inner,True,False,True_False,SSP,CORRECT_INC,CORRECT,1,21,-7,0,False
22,objrel_nounpp,Filler,V1,inner,True,False,True_False,SSP,CORRECT_INC,CORRECT,1,24,-7,0,False
22,objrel_nounpp,Filler,V1,inner,True,False,True_False,SSP,WRONG_INC,WRONG,1,234,-7,-2.0645,False
22,objrel_nounpp,Filler,V1,inner,True,True,True_True,PPP,CORRECT_INC,CORRECT,1,152,-7,0,False
22,objrel_nounpp,Filler,V1,inner,True,True,True_True,PPP,CORRECT_INC,CORRECT,1,187,-7,0,False
22,objrel_nounpp,Filler,V1,inner,True,True,True_True,PPP,CORRECT_INC,CORRECT,1,193,-7,0,False
22,objrel_nounpp,Filler,V1,inner,True,True,True_True,SSS,CORRECT_INC,CORRECT,1,103,-7,0,False
22,objrel_nounpp,Filler,V1,inner,True,True,True_True,SSS,CORRECT_INC,CORRECT,1,131,-7,0,False
22,objrel_nounpp,Filler,V1,inner,True,True,True_True,SSS,CORRECT_INC,CORRECT,1,14,-7,0,False
22,objrel_nounpp,Filler,V1,inner,True,True,True_True,SSS,CORRECT_INC,CORRECT,1,25,-7,0,False
22,objrel_nounpp,Filler,V1,inner,True,True,True_True,SSS,CORRECT_INC,CORRECT,1,31,-7,0,False
22,objrel_nounpp,Filler,V1,inner,True,True,True_True,SSS,CORRECT_INC,CORRECT,1,40,-7,0,False
22,objrel_nounpp,Filler,V2,outer,False,False,False_False,PSP,CORRECT_INC,CORRECT,1,109,-8,0,False
22,objrel_nounpp,Filler,V2,outer,False,False,False_False,PSP,CORRECT_INC,CORRECT,1,122,-8,0,False
22,objrel_nounpp,Filler,V2,outer,False,False,False_False,PSP,CORRECT_INC,CORRECT,1,160,-8,0,False
22,objrel_nounpp,Filler,V2,outer,False,False,False_False,PSP,CORRECT_INC,CORRECT,1,204,-8,0,False
22,objrel_nounpp,Filler,V2,outer,False,False,False_False,PSP,CORRECT_INC,CORRECT,1,224,-8,0,False
22,objrel_nounpp,Filler,V2,outer,False,False,False_False,PSP,CORRECT_INC,CORRECT,1,250,-8,0,False
22,objrel_nounpp,Filler,V2,outer,False,False,False_False,SPS,CORRECT_INC,CORRECT,1,124,-8,0,False
22,objrel_nounpp,Filler,V2,outer,False,False,False_False,SPS,CORRECT_INC,CORRECT,1,151,-8,0,False
22,objrel_nounpp,Filler,V2,outer,False,False,False_False,SPS,CORRECT_INC,CORRECT,1,215,-8,0,False
22,objrel_nounpp,Filler,V2,outer,False,False,False_False,SPS,CORRECT_INC,CORRECT,1,43,-8,0,False
22,objrel_nounpp,Filler,V2,outer,False,False,False_False,SPS,CORRECT_INC,CORRECT,1,64,-8,0,False
22,objrel_nounpp,Filler,V2,outer,False,False,False_False,SPS,CORRECT_INC,CORRECT,1,80,-8,0,False
22,objrel_nounpp,Filler,V2,outer,False,True,False_True,PSS,CORRECT_INC,CORRECT,1,11,-8,0,False
22,objrel_nounpp,Filler,V2,outer,False,True,False_True,PSS,CORRECT_INC,CORRECT,1,235,-8,0,False
22,objrel_nounpp,Filler,V2,outer,False,True,False_True,SPP,CORRECT_INC,CORRECT,1,121,-8,0,False
22,objrel_nounpp,Filler,V2,outer,False,True,False_True,SPP,CORRECT_INC,CORRECT,1,146,-8,0,False
22,objrel_nounpp,Filler,V2,outer,False,True,False_True,SPP,CORRECT_INC,CORRECT,1,87,-8,0,False
22,objrel_nounpp,Filler,V2,outer,False,True,False_True,SPP,WRONG,WRONG,1,244,-8,0,False
22,objrel_nounpp,Filler,V2,outer,True,False,True_False,PPS,CORRECT_INC,CORRECT,1,19,-8,0,False
22,objrel_nounpp,Filler,V2,outer,True,False,True_False,PPS,CORRECT_INC,CORRECT,1,228,-8,0,False
22,objrel_nounpp,Filler,V2,outer,True,False,True_False,PPS,CORRECT_INC,CORRECT,1,254,-8,0,False
22,objrel_nounpp,Filler,V2,outer,True,False,True_False,SSP,CORRECT,CORRECT,1,60,-8,-3.3814,False
22,objrel_nounpp,Filler,V2,outer,True,False,True_False,SSP,CORRECT_INC,CORRECT,1,167,-8,0,False
22,objrel_nounpp,Filler,V2,outer,True,False,True_False,SSP,CORRECT_INC,CORRECT,1,2,-8,0,False
22,objrel_nounpp,Filler,V2,outer,True,False,True_False,SSP,CORRECT_INC,CORRECT,1,214,-8,0,False
22,objrel_nounpp,Filler,V2,outer,True,False,True_False,SSP,CORRECT_INC,CORRECT,1,261,-8,0,False
22,objrel_nounpp,Filler,V2,outer,True,True,True_True,PPP,CORRECT_INC,CORRECT,1,145,-8,0,False
22,objrel_nounpp,Filler,V2,outer,True,True,True_True,PPP,CORRECT_INC,CORRECT,1,184,-8,0,False
22,objrel_nounpp,Filler,V2,outer,True,True,True_True,PPP,WRONG,WRONG,1,172,-8,0,False
22,objrel_nounpp,Filler,V2,outer,True,True,True_True,SSS,CORRECT_INC,CORRECT,1,163,-8,0,False
22,objrel_nounpp,Violation,V1,inner,False,False,False_False,PSP,CORRECT_INC,CORRECT,1,18,7,0,False
22,objrel_nounpp,Violation,V1,inner,False,False,False_False,PSP,CORRECT_INC,CORRECT,1,72,7,0,False
22,objrel_nounpp,Violation,V1,inner,False,False,False_False,PSP,WRONG,WRONG,1,217,7,0,False
22,objrel_nounpp,Violation,V1,inner,False,False,False_False,PSP,WRONG,WRONG,1,58,7,0,False
22,objrel_nounpp,Violation,V1,inner,False,False,False_False,PSP,WRONG_INC,WRONG,1,177,7,2.4761,False
22,objrel_nounpp,Violation,V1,inner,False,False,False_False,SPS,CORRECT_INC,CORRECT,1,143,7,0,False
22,objrel_nounpp,Violation,V1,inner,False,False,False_False,SPS,CORRECT_INC,CORRECT,1,170,7,0,False
22,objrel_nounpp,Violation,V1,inner,False,False,False_False,SPS,CORRECT_INC,CORRECT,1,249,7,0,False
22,objrel_nounpp,Violation,V1,inner,False,False,False_False,SPS,CORRECT_INC,CORRECT,1,266,7,0,False
22,objrel_nounpp,Violation,V1,inner,False,False,False_False,SPS,CORRECT_INC,CORRECT,1,268,7,0,False
22,objrel_nounpp,Violation,V1,inner,False,True,False_True,PSS,CORRECT_INC,CORRECT,1,69,7,0,False
22,objrel_nounpp,Violation,V1,inner,False,True,False_True,PSS,WRONG,WRONG,1,105,7,0,False
22,objrel_nounpp,Violation,V1,inner,False,True,False_True,PSS,WRONG,WRONG,1,226,7,0,False
22,objrel_nounpp,Violation,V1,inner,False,True,False_True,PSS,WRONG,WRONG,1,43,7,0,False
22,objrel_nounpp,Violation,V1,inner,False,True,False_True,PSS,WRONG,WRONG,1,75,7,0,False
22,objrel_nounpp,Violation,V1,inner,False,True,False_True,SPP,CORRECT_INC,CORRECT,1,23,7,0,False
22,objrel_nounpp,Violation,V1,inner,False,True,False_True,SPP,CORRECT_INC,CORRECT,1,78,7,0,False
22,objrel_nounpp,Violation,V1,inner,False,True,False_True,SPP,CORRECT_INC,CORRECT,1,85,7,0,False
22,objrel_nounpp,Violation,V1,inner,False,True,False_True,SPP,WRONG,WRONG,1,99,7,0,False
22,objrel_nounpp,Violation,V1,inner,False,True,False_True,SPP,WRONG_DDC,REJECTED,1,101,7,0,False
22,objrel_nounpp,Violation,V1,inner,True,False,True_False,PPS,CORRECT_INC,CORRECT,1,170,7,0,False
22,objrel_nounpp,Violation,V1,inner,True,False,True_False,PPS,CORRECT_INC,CORRECT,1,175,7,0,False
22,objrel_nounpp,Violation,V1,inner,True,False,True_False,PPS,CORRECT_INC,CORRECT,1,186,7,0,False
22,objrel_nounpp,Violation,V1,inner,True,False,True_False,PPS,CORRECT_INC,CORRECT,1,259,7,0,False
22,objrel_nounpp,Violation,V1,inner,True,False,True_False,PPS,WRONG,WRONG,1,40,7,0,False
22,objrel_nounpp,Violation,V1,inner,True,False,True_False,SSP,CORRECT_INC,CORRECT,1,194,7,0,False
22,objrel_nounpp,Violation,V1,inner,True,False,True_False,SSP,CORRECT_INC,CORRECT,1,225,7,0,False
22,objrel_nounpp,Violation,V1,inner,True,False,True_False,SSP,CORRECT_INC,CORRECT,1,237,7,0,False
22,objrel_nounpp,Violation,V1,inner,True,False,True_False,SSP,WRONG,WRONG,1,9,7,0,False
22,objrel_nounpp,Violation,V1,inner,True,False,True_False,SSP,WRONG_INC,WRONG,1,234,7,2.2003,False
22,objrel_nounpp,Violation,V1,inner,True,True,True_True,PPP,CORRECT_INC,CORRECT,1,201,7,0,False
22,objrel_nounpp,Violation,V1,inner,True,True,True_True,PPP,CORRECT_INC,CORRECT,1,44,7,0,False
22,objrel_nounpp,Violation,V1,inner,True,True,True_True,PPP,CORRECT_INC,CORRECT,1,47,7,0,False
22,objrel_nounpp,Violation,V1,inner,True,True,True_True,PPP,CORRECT_INC,CORRECT,1,50,7,0,False
22,objrel_nounpp,Violation,V1,inner,True,True,True_True,PPP,WRONG,WRONG,1,74,7,0,False
22,objrel_nounpp,Violation,V1,inner,True,True,True_True,SSS,CORRECT_INC,CORRECT,1,163,7,0,False
22,objrel_nounpp,Violation,V1,inner,True,True,True_True,SSS,CORRECT_INC,CORRECT,1,28,7,0,False
22,objrel_nounpp,Violation,V1,inner,True,True,True_True,SSS,CORRECT_INC,CORRECT,1,55,7,0,False
22,objrel_nounpp,Violation,V1,inner,True,True,True_True,SSS,CORRECT_INC,CORRECT,1,62,7,0,False
22,objrel_nounpp,Violation,V1,inner,True,True,True_True,SSS,WRONG,WRONG,1,33,7,0,False
22,objrel_nounpp,Violation,V2,outer,False,False,False_False,PSP,CORRECT_INC,CORRECT,1,149,8,0,False
22,objrel_nounpp,Violation,V2,outer,False,False,False_False,PSP,CORRECT_INC,CORRECT,1,158,8,0,False
22,objrel_nounpp,Violation,V2,outer,False,False,False_False,PSP,CORRECT_INC,CORRECT,1,258,8,0,False
22,objrel_nounpp,Violation,V2,outer,False,False,False_False,PSP,CORRECT_INC,CORRECT,1,76,8,0,False
22,objrel_nounpp,Violation,V2,outer,False,False,False_False,PSP,CORRECT_INC,CORRECT,1,87,8,0,False
22,objrel_nounpp,Violation,V2,outer,False,False,False_False,SPS,CORRECT_INC,CORRECT,1,150,8,0,False
22,objrel_nounpp,Violation,V2,outer,False,False,False_False,SPS,CORRECT_INC,CORRECT,1,2,8,0,False
22,objrel_nounpp,Violation,V2,outer,False,False,False_False,SPS,CORRECT_INC,CORRECT,1,99,8,0,False
22,objrel_nounpp,Violation,V2,outer,False,False,False_False,SPS,WRONG,WRONG,1,183,8,0,False
22,objrel_nounpp,Violation,V2,outer,False,False,False_False,SPS,WRONG,WRONG,1,20,8,0,False
22,objrel_nounpp,Violation,V2,outer,False,True,False_True,PSS,CORRECT_INC,CORRECT,1,202,8,0,False
22,objrel_nounpp,Violation,V2,outer,False,True,False_True,PSS,CORRECT_INC,CORRECT,1,251,8,0,False
22,objrel_nounpp,Violation,V2,outer,False,True,False_True,PSS,CORRECT_INC,CORRECT,1,76,8,0,False
22,objrel_nounpp,Violation,V2,outer,False,True,False_True,PSS,CORRECT_INC,CORRECT,1,98,8,0,False
22,objrel_nounpp,Violation,V2,outer,False,True,False_True,PSS,WRONG,WRONG,1,165,8,0,False
22,objrel_nounpp,Violation,V2,outer,False,True,False_True,SPP,CORRECT_INC,CORRECT,1,104,8,0,False
22,objrel_nounpp,Violation,V2,outer,False,True,False_True,SPP,CORRECT_INC,CORRECT,1,128,8,0,False
22,objrel_nounpp,Violation,V2,outer,False,True,False_True,SPP,CORRECT_INC,CORRECT,1,252,8,0,False
22,objrel_nounpp,Violation,V2,outer,False,True,False_True,SPP,CORRECT_INC,CORRECT,1,257,8,0,False
22,objrel_nounpp,Violation,V2,outer,False,True,False_True,SPP,WRONG,WRONG,1,174,8,0,False
22,objrel_nounpp,Violation,V2,outer,True,False,True_False,PPS,CORRECT_INC,CORRECT,1,117,8,0,False
22,objrel_nounpp,Violation,V2,outer,True,False,True_False,PPS,CORRECT_INC,CORRECT,1,223,8,0,False
22,objrel_nounpp,Violation,V2,outer,True,False,True_False,PPS,CORRECT_INC,CORRECT,1,245,8,0,False
22,objrel_nounpp,Violation,V2,outer,True,False,True_False,PPS,CORRECT_INC,CORRECT,1,75,8,0,False
22,objrel_nounpp,Violation,V2,outer,True,False,True_False,PPS,WRONG_INC,WRONG,1,49,8,0.018092,False
22,objrel_nounpp,Violation,V2,outer,True,False,True_False,SSP,CORRECT,CORRECT,1,50,8,-2.9174,False
22,objrel_nounpp,Violation,V2,outer,True,False,True_False,SSP,CORRECT_INC,CORRECT,1,124,8,0,False
22,objrel_nounpp,Violation,V2,outer,True,False,True_False,SSP,CORRECT_INC,CORRECT,1,150,8,0,False
22,objrel_nounpp,Violation,V2,outer,True,False,True_False,SSP,CORRECT_INC,CORRECT,1,244,8,0,False
22,objrel_nounpp,Violation,V2,outer,True,False,True_False,SSP,CORRECT_INC,CORRECT,1,3,8,0,False
22,objrel_nounpp,Violation,V2,outer,True,True,True_True,PPP,CORRECT_INC,CORRECT,1,102,8,0,False
22,objrel_nounpp,Violation,V2,outer,True,True,True_True,PPP,CORRECT_INC,CORRECT,1,119,8,0,False
22,objrel_nounpp,Violation,V2,outer,True,True,True_True,PPP,CORRECT_INC,CORRECT,1,16,8,0,False
22,objrel_nounpp,Violation,V2,outer,True,True,True_True,PPP,CORRECT_INC,CORRECT,1,224,8,0,False
22,objrel_nounpp,Violation,V2,outer,True,True,True_True,PPP,WRONG,WRONG,1,15,8,0,False
22,objrel_nounpp,Violation,V2,outer,True,True,True_True,SSS,CORRECT_INC,CORRECT,1,197,8,0,False
22,objrel_nounpp,Violation,V2,outer,True,True,True_True,SSS,CORRECT_INC,CORRECT,1,207,8,0,False
22,objrel_nounpp,Violation,V2,outer,True,True,True_True,SSS,CORRECT_INC,CORRECT,1,211,8,0,False
22,objrel_nounpp,Violation,V2,outer,True,True,True_True,SSS,CORRECT_INC,CORRECT,1,57,8,0,False
22,objrel_nounpp,Violation,V2,outer,True,True,True_True,SSS,CORRECT_INC,CORRECT,1,74,8,0,False
23,embedding_mental_LR,Acceptable,None,other,False,False,False_False,PSP,CORRECT,CORRECT,1,265,0,0,False
23,embedding_mental_LR,Acceptable,None,other,False,False,False_False,PSP,CORRECT_INC,CORRECT,1,101,0,0,False
23,embedding_mental_LR,Acceptable,None,other,False,False,False_False,PSP,CORRECT_INC,CORRECT,1,132,0,0,False
23,embedding_mental_LR,Acceptable,None,other,False,False,False_False,PSP,CORRECT_INC,CORRECT,1,244,0,0,False
23,embedding_mental_LR,Acceptable,None,other,False,False,False_False,PSP,CORRECT_INC,CORRECT,1,263,0,0,False
23,embedding_mental_LR,Acceptable,None,other,False,False,False_False,SPS,CORRECT_INC,CORRECT,1,105,0,0,False
23,embedding_mental_LR,Acceptable,None,other,False,False,False_False,SPS,CORRECT_INC,CORRECT,1,145,0,0,False
