subject,sentence_type,trial_type,violation_type,violation_position,condition,correct_wrong,valid_answer,block,trial_num,slide_num_of_viol,RT
5,embedding_mental_LR,Acceptable,NaN,other,PPP,CORRECT,CORRECT,1,221,0,0
5,embedding_mental_LR,Acceptable,NaN,other,PPP,CORRECT,CORRECT,1,250,0,0
5,embedding_mental_LR,Acceptable,NaN,other,PPP,CORRECT,CORRECT,1,47,0,0
5,embedding_mental_LR,Acceptable,NaN,other,PPP,CORRECT,CORRECT,2,233,0,0
5,embedding_mental_LR,Acceptable,NaN,other,PPP,CORRECT,CORRECT,2,247,0,0
5,embedding_mental_LR,Acceptable,NaN,other,PPS,CORRECT,CORRECT,1,210,0,0
5,embedding_mental_LR,Acceptable,NaN,other,PPS,CORRECT,CORRECT,1,28,0,0
5,embedding_mental_LR,Acceptable,NaN,other,PPS,CORRECT,CORRECT,1,5,0,0
5,embedding_mental_LR,Acceptable,NaN,other,PPS,CORRECT,CORRECT,1,69,0,0
5,embedding_mental_LR,Acceptable,NaN,other,PPS,CORRECT,CORRECT,2,56,0,0
5,embedding_mental_LR,Acceptable,NaN,other,PSP,CORRECT,CORRECT,1,145,0,0
5,embedding_mental_LR,Acceptable,NaN,other,PSP,CORRECT,CORRECT,1,228,0,0
5,embedding_mental_LR,Acceptable,NaN,other,PSP,CORRECT,CORRECT,1,55,0,0
5,embedding_mental_LR,Acceptable,NaN,other,PSP,CORRECT,CORRECT,1,6,0,0
5,embedding_mental_LR,Acceptable,NaN,other,PSP,CORRECT,CORRECT,2,209,0,0
5,embedding_mental_LR,Acceptable,NaN,other,PSS,CORRECT,CORRECT,1,153,0,0
5,embedding_mental_LR,Acceptable,NaN,other,PSS,CORRECT,CORRECT,1,58,0,0
5,embedding_mental_LR,Acceptable,NaN,other,PSS,CORRECT,CORRECT,1,60,0,0
5,embedding_mental_LR,Acceptable,NaN,other,PSS,CORRECT,CORRECT,2,181,0,0
5,embedding_mental_LR,Acceptable,NaN,other,PSS,CORRECT,CORRECT,2,47,0,0
5,embedding_mental_LR,Acceptable,NaN,other,SPP,CORRECT,CORRECT,1,128,0,0
5,embedding_mental_LR,Acceptable,NaN,other,SPP,CORRECT,CORRECT,1,45,0,0
5,embedding_mental_LR,Acceptable,NaN,other,SPP,CORRECT,CORRECT,1,87,0,0
5,embedding_mental_LR,Acceptable,NaN,other,SPP,CORRECT,CORRECT,2,269,0,0
5,embedding_mental_LR,Acceptable,NaN,other,SPP,CORRECT_DDC,REJECTED,1,127,0,0
5,embedding_mental_LR,Acceptable,NaN,other,SPS,CORRECT,CORRECT,1,135,0,0
5,embedding_mental_LR,Acceptable,NaN,other,SPS,CORRECT,CORRECT,2,92,0,0
5,embedding_mental_LR,Acceptable,NaN,other,SPS,CORRECT_DDC,REJECTED,2,64,0,0
5,embedding_mental_LR,Acceptable,NaN,other,SPS,WRONG_INC,WRONG,1,164,0,0
5,embedding_mental_LR,Acceptable,NaN,other,SPS,WRONG_INC,WRONG,2,156,0,0
5,embedding_mental_LR,Acceptable,NaN,other,SSP,CORRECT,CORRECT,1,15,0,0
5,embedding_mental_LR,Acceptable,NaN,other,SSP,CORRECT,CORRECT,1,36,0,0
5,embedding_mental_LR,Acceptable,NaN,other,SSP,CORRECT,CORRECT,2,114,0,0
5,embedding_mental_LR,Acceptable,NaN,other,SSP,CORRECT,CORRECT,2,40,0,0
5,embedding_mental_LR,Acceptable,NaN,other,SSP,WRONG_INC,WRONG,2,186,0,0
5,embedding_mental_LR,Acceptable,NaN,other,SSS,CORRECT,CORRECT,1,29,0,0
5,embedding_mental_LR,Acceptable,NaN,other,SSS,CORRECT,CORRECT,2,222,0,0
5,embedding_mental_LR,Acceptable,NaN,other,SSS,CORRECT,CORRECT,2,26,0,0
5,embedding_mental_LR,Acceptable,NaN,other,SSS,CORRECT,CORRECT,2,46,0,0
5,embedding_mental_LR,Acceptable,NaN,other,SSS,CORRECT,CORRECT,2,61,0,0
5,embedding_mental_LR,Filler,N2,other,PPS,CORRECT_INC,CORRECT,2,228,-4,0
5,embedding_mental_LR,Filler,N2,other,PPS,CORRECT_INC,CORRECT,2,238,-4,0
5,embedding_mental_LR,Filler,N2,other,PPS,WRONG,WRONG,2,160,-4,0
5,embedding_mental_LR,Filler,N2,other,PSS,CORRECT_INC,CORRECT,2,147,-4,0
5,embedding_mental_LR,Filler,N2,other,SPS,CORRECT_INC,CORRECT,1,264,-4,0
5,embedding_mental_LR,Filler,N2,other,SPS,CORRECT_INC,CORRECT,2,170,-4,0
5,embedding_mental_LR,Filler,N2,other,SPS,CORRECT_INC,CORRECT,2,76,-4,0
5,embedding_mental_LR,Filler,N2,other,SSP,CORRECT_INC,CORRECT,2,98,-4,0
5,embedding_mental_LR,Filler,N2,other,SSS,CORRECT_INC,CORRECT,1,72,-4,0
5,embedding_mental_LR,Filler,N2,other,SSS,CORRECT_INC,CORRECT,1,97,-4,0
5,embedding_mental_LR,Filler,V2,inner,PPP,CORRECT_INC,CORRECT,2,206,-7,0
5,embedding_mental_LR,Filler,V2,inner,PPP,CORRECT_INC,CORRECT,2,48,-7,0
5,embedding_mental_LR,Filler,V2,inner,PPS,CORRECT_INC,CORRECT,2,111,-7,0
5,embedding_mental_LR,Filler,V2,inner,PSP,CORRECT_INC,CORRECT,1,129,-7,0
5,embedding_mental_LR,Filler,V2,inner,PSP,CORRECT_INC,CORRECT,1,34,-7,0
5,embedding_mental_LR,Filler,V2,inner,PSP,CORRECT_INC,CORRECT,2,152,-7,0
5,embedding_mental_LR,Filler,V2,inner,PSP,CORRECT_INC,CORRECT,2,208,-7,0
5,embedding_mental_LR,Filler,V2,inner,PSP,WRONG,WRONG,2,112,-7,0
5,embedding_mental_LR,Filler,V2,inner,PSS,CORRECT_INC,CORRECT,1,104,-7,0
5,embedding_mental_LR,Filler,V2,inner,PSS,CORRECT_INC,CORRECT,1,149,-7,0
5,embedding_mental_LR,Filler,V2,inner,PSS,CORRECT_INC,CORRECT,1,154,-7,0
5,embedding_mental_LR,Filler,V2,inner,PSS,CORRECT_INC,CORRECT,1,98,-7,0
5,embedding_mental_LR,Filler,V2,inner,PSS,CORRECT_INC,CORRECT,2,153,-7,0
5,embedding_mental_LR,Filler,V2,inner,PSS,CORRECT_INC,CORRECT,2,248,-7,0
5,embedding_mental_LR,Filler,V2,inner,SPP,CORRECT_INC,CORRECT,1,165,-7,0
5,embedding_mental_LR,Filler,V2,inner,SPP,CORRECT_INC,CORRECT,1,269,-7,0
5,embedding_mental_LR,Filler,V2,inner,SPP,CORRECT_INC,CORRECT,2,216,-7,0
5,embedding_mental_LR,Filler,V2,inner,SPP,CORRECT_INC,CORRECT,2,249,-7,0
5,embedding_mental_LR,Filler,V2,inner,SPP,CORRECT_INC,CORRECT,2,31,-7,0
5,embedding_mental_LR,Filler,V2,inner,SPS,CORRECT_INC,CORRECT,2,154,-7,0
5,embedding_mental_LR,Filler,V2,inner,SPS,CORRECT_INC,CORRECT,2,192,-7,0
5,embedding_mental_LR,Filler,V2,inner,SPS,CORRECT_INC,CORRECT,2,9,-7,0
5,embedding_mental_LR,Filler,V2,inner,SSP,CORRECT_INC,CORRECT,1,155,-7,0
5,embedding_mental_LR,Filler,V2,inner,SSP,CORRECT_INC,CORRECT,1,182,-7,0
5,embedding_mental_LR,Filler,V2,inner,SSP,CORRECT_INC,CORRECT,2,231,-7,0
5,embedding_mental_LR,Filler,V2,inner,SSS,CORRECT_INC,CORRECT,1,85,-7,0
5,embedding_mental_LR,Filler,V2,inner,SSS,CORRECT_INC,CORRECT,2,126,-7,0
5,embedding_mental_LR,Filler,V2,inner,SSS,CORRECT_INC,CORRECT,2,157,-7,0
5,embedding_mental_LR,Filler,V2,inner,SSS,CORRECT_INC,CORRECT,2,173,-7,0
5,embedding_mental_LR,Filler,V2,inner,SSS,CORRECT_INC,CORRECT,2,199,-7,0
5,embedding_mental_LR,Violation,V2,inner,PPP,CORRECT,CORRECT,2,19,7,-2.2123
5,embedding_mental_LR,Violation,V2,inner,PPP,CORRECT_INC,CORRECT,1,100,7,0
5,embedding_mental_LR,Violation,V2,inner,PPP,CORRECT_INC,CORRECT,1,261,7,0
5,embedding_mental_LR,Violation,V2,inner,PPP,CORRECT_INC,CORRECT,1,54,7,0
5,embedding_mental_LR,Violation,V2,inner,PPP,CORRECT_INC,CORRECT,1,83,7,0
5,embedding_mental_LR,Violation,V2,inner,PPS,CORRECT_INC,CORRECT,1,132,7,0
5,embedding_mental_LR,Violation,V2,inner,PPS,CORRECT_INC,CORRECT,1,189,7,0
5,embedding_mental_LR,Violation,V2,inner,PPS,CORRECT_INC,CORRECT,1,241,7,0
5,embedding_mental_LR,Violation,V2,inner,PPS,CORRECT_INC,CORRECT,2,68,7,0
5,embedding_mental_LR,Violation,V2,inner,PPS,CORRECT_INC,CORRECT,2,77,7,0
5,embedding_mental_LR,Violation,V2,inner,PSP,CORRECT_INC,CORRECT,1,123,7,0
5,embedding_mental_LR,Violation,V2,inner,PSP,CORRECT_INC,CORRECT,1,17,7,0
5,embedding_mental_LR,Violation,V2,inner,PSP,CORRECT_INC,CORRECT,1,224,7,0
5,embedding_mental_LR,Violation,V2,inner,PSP,CORRECT_INC,CORRECT,2,223,7,0
5,embedding_mental_LR,Violation,V2,inner,PSP,WRONG,WRONG,1,214,7,0
5,embedding_mental_LR,Violation,V2,inner,PSS,CORRECT,CORRECT,2,42,7,0.51496
5,embedding_mental_LR,Violation,V2,inner,PSS,CORRECT_INC,CORRECT,1,162,7,0
5,embedding_mental_LR,Violation,V2,inner,PSS,CORRECT_INC,CORRECT,1,192,7,0
5,embedding_mental_LR,Violation,V2,inner,PSS,CORRECT_INC,CORRECT,2,144,7,0
5,embedding_mental_LR,Violation,V2,inner,PSS,CORRECT_INC,CORRECT,2,245,7,0
5,embedding_mental_LR,Violation,V2,inner,SPP,CORRECT_INC,CORRECT,1,170,7,0
5,embedding_mental_LR,Violation,V2,inner,SPP,CORRECT_INC,CORRECT,1,65,7,0
5,embedding_mental_LR,Violation,V2,inner,SPP,CORRECT_INC,CORRECT,2,102,7,0
5,embedding_mental_LR,Violation,V2,inner,SPP,CORRECT_INC,CORRECT,2,214,7,0
5,embedding_mental_LR,Violation,V2,inner,SPP,CORRECT_INC,CORRECT,2,54,7,0
5,embedding_mental_LR,Violation,V2,inner,SPS,CORRECT_INC,CORRECT,1,219,7,0
5,embedding_mental_LR,Violation,V2,inner,SPS,CORRECT_INC,CORRECT,1,78,7,0
5,embedding_mental_LR,Violation,V2,inner,SPS,CORRECT_INC,CORRECT,2,100,7,0
5,embedding_mental_LR,Violation,V2,inner,SPS,CORRECT_INC,CORRECT,2,239,7,0
5,embedding_mental_LR,Violation,V2,inner,SPS,WRONG,WRONG,2,62,7,0
5,embedding_mental_LR,Violation,V2,inner,SSP,CORRECT_INC,CORRECT,1,257,7,0
5,embedding_mental_LR,Violation,V2,inner,SSP,CORRECT_INC,CORRECT,1,26,7,0
5,embedding_mental_LR,Violation,V2,inner,SSP,CORRECT_INC,CORRECT,1,39,7,0
5,embedding_mental_LR,Violation,V2,inner,SSP,CORRECT_INC,CORRECT,2,162,7,0
5,embedding_mental_LR,Violation,V2,inner,SSP,CORRECT_INC,CORRECT,2,2,7,0
5,embedding_mental_LR,Violation,V2,inner,SSS,CORRECT_INC,CORRECT,1,243,7,0
5,embedding_mental_LR,Violation,V2,inner,SSS,CORRECT_INC,CORRECT,1,70,7,0
5,embedding_mental_LR,Violation,V2,inner,SSS,CORRECT_INC,CORRECT,2,101,7,0
5,embedding_mental_LR,Violation,V2,inner,SSS,CORRECT_INC,CORRECT,2,16,7,0
5,embedding_mental_LR,Violation,V2,inner,SSS,CORRECT_INC,CORRECT,2,185,7,0
5,embedding_mental_SR,Acceptable,NaN,other,PP,CORRECT,CORRECT,1,252,0,0
5,embedding_mental_SR,Acceptable,NaN,other,PP,CORRECT,CORRECT,1,31,0,0
5,embedding_mental_SR,Acceptable,NaN,other,PP,CORRECT,CORRECT,2,105,0,0
5,embedding_mental_SR,Acceptable,NaN,other,PP,CORRECT,CORRECT,2,119,0,0
5,embedding_mental_SR,Acceptable,NaN,other,PP,CORRECT,CORRECT,2,18,0,0
5,embedding_mental_SR,Acceptable,NaN,other,PS,CORRECT,CORRECT,1,13,0,0
5,embedding_mental_SR,Acceptable,NaN,other,PS,CORRECT,CORRECT,1,131,0,0
5,embedding_mental_SR,Acceptable,NaN,other,PS,CORRECT,CORRECT,1,226,0,0
5,embedding_mental_SR,Acceptable,NaN,other,PS,CORRECT,CORRECT,2,55,0,0
5,embedding_mental_SR,Acceptable,NaN,other,PS,CORRECT,CORRECT,2,59,0,0
5,embedding_mental_SR,Acceptable,NaN,other,SP,CORRECT,CORRECT,1,117,0,0
5,embedding_mental_SR,Acceptable,NaN,other,SP,CORRECT,CORRECT,1,137,0,0
5,embedding_mental_SR,Acceptable,NaN,other,SP,CORRECT,CORRECT,1,139,0,0
5,embedding_mental_SR,Acceptable,NaN,other,SP,CORRECT,CORRECT,1,218,0,0
5,embedding_mental_SR,Acceptable,NaN,other,SP,WRONG_INC,WRONG,2,24,0,0
5,embedding_mental_SR,Acceptable,NaN,other,SS,CORRECT,CORRECT,1,52,0,0
5,embedding_mental_SR,Acceptable,NaN,other,SS,CORRECT,CORRECT,2,167,0,0
5,embedding_mental_SR,Acceptable,NaN,other,SS,CORRECT,CORRECT,2,196,0,0
5,embedding_mental_SR,Acceptable,NaN,other,SS,CORRECT,CORRECT,2,28,0,0
5,embedding_mental_SR,Acceptable,NaN,other,SS,CORRECT_DDC,REJECTED,2,188,0,0
5,embedding_mental_SR,Filler,N1,other,PP,CORRECT_INC,CORRECT,2,225,-1,0
5,embedding_mental_SR,Filler,N1,other,SP,CORRECT_INC,CORRECT,1,198,-1,0
5,embedding_mental_SR,Filler,N1,other,SP,CORRECT_INC,CORRECT,1,233,-1,0
5,embedding_mental_SR,Filler,N1,other,SP,CORRECT_INC,CORRECT,2,224,-1,0
5,embedding_mental_SR,Filler,N1,other,SP,WRONG,WRONG,1,18,-1,0
5,embedding_mental_SR,Filler,V2,inner,PP,CORRECT_INC,CORRECT,2,108,-5,0
5,embedding_mental_SR,Filler,V2,inner,PP,CORRECT_INC,CORRECT,2,91,-5,0
5,embedding_mental_SR,Filler,V2,inner,PS,CORRECT_INC,CORRECT,1,156,-5,0
5,embedding_mental_SR,Filler,V2,inner,PS,CORRECT_INC,CORRECT,1,20,-5,0
5,embedding_mental_SR,Filler,V2,inner,PS,CORRECT_INC,CORRECT,1,46,-5,0
5,embedding_mental_SR,Filler,V2,inner,PS,CORRECT_INC,CORRECT,2,150,-5,0
5,embedding_mental_SR,Filler,V2,inner,PS,CORRECT_INC,CORRECT,2,177,-5,0
5,embedding_mental_SR,Filler,V2,inner,PS,CORRECT_INC,CORRECT,2,197,-5,0
5,embedding_mental_SR,Filler,V2,inner,PS,WRONG,WRONG,2,14,-5,0
5,embedding_mental_SR,Filler,V2,inner,SP,CORRECT_INC,CORRECT,1,77,-5,0
5,embedding_mental_SR,Filler,V2,inner,SP,CORRECT_INC,CORRECT,2,163,-5,0
5,embedding_mental_SR,Filler,V2,inner,SS,CORRECT_INC,CORRECT,1,169,-5,0
5,embedding_mental_SR,Filler,V2,inner,SS,CORRECT_INC,CORRECT,1,205,-5,0
5,embedding_mental_SR,Filler,V2,inner,SS,CORRECT_INC,CORRECT,2,124,-5,0
5,embedding_mental_SR,Filler,V2,inner,SS,CORRECT_INC,CORRECT,2,5,-5,0
5,embedding_mental_SR,Violation,V2,inner,PP,CORRECT_INC,CORRECT,1,147,5,0
5,embedding_mental_SR,Violation,V2,inner,PP,CORRECT_INC,CORRECT,1,167,5,0
5,embedding_mental_SR,Violation,V2,inner,PP,CORRECT_INC,CORRECT,1,168,5,0
5,embedding_mental_SR,Violation,V2,inner,PP,CORRECT_INC,CORRECT,2,242,5,0
5,embedding_mental_SR,Violation,V2,inner,PP,CORRECT_INC,CORRECT,2,65,5,0
5,embedding_mental_SR,Violation,V2,inner,PS,CORRECT_INC,CORRECT,1,236,5,0
5,embedding_mental_SR,Violation,V2,inner,PS,CORRECT_INC,CORRECT,1,24,5,0
5,embedding_mental_SR,Violation,V2,inner,PS,CORRECT_INC,CORRECT,2,202,5,0
5,embedding_mental_SR,Violation,V2,inner,PS,CORRECT_INC,CORRECT,2,220,5,0
5,embedding_mental_SR,Violation,V2,inner,PS,CORRECT_INC,CORRECT,2,7,5,0
5,embedding_mental_SR,Violation,V2,inner,SP,CORRECT_INC,CORRECT,1,255,5,0
5,embedding_mental_SR,Violation,V2,inner,SP,CORRECT_INC,CORRECT,1,35,5,0
5,embedding_mental_SR,Violation,V2,inner,SP,CORRECT_INC,CORRECT,2,30,5,0
5,embedding_mental_SR,Violation,V2,inner,SP,CORRECT_INC,CORRECT,2,60,5,0
5,embedding_mental_SR,Violation,V2,inner,SP,WRONG_DDC,REJECTED,2,254,5,0
5,embedding_mental_SR,Violation,V2,inner,SS,CORRECT_INC,CORRECT,1,105,5,0
5,embedding_mental_SR,Violation,V2,inner,SS,CORRECT_INC,CORRECT,1,120,5,0
5,embedding_mental_SR,Violation,V2,inner,SS,CORRECT_INC,CORRECT,1,208,5,0
5,embedding_mental_SR,Violation,V2,inner,SS,CORRECT_INC,CORRECT,1,217,5,0
5,embedding_mental_SR,Violation,V2,inner,SS,CORRECT_INC,CORRECT,1,242,5,0
5,objrel,Acceptable,NaN,other,PP,CORRECT,CORRECT,1,175,0,0
5,objrel,Acceptable,NaN,other,PP,CORRECT,CORRECT,1,234,0,0
5,objrel,Acceptable,NaN,other,PP,CORRECT,CORRECT,2,104,0,0
5,objrel,Acceptable,NaN,other,PP,CORRECT,CORRECT,2,117,0,0
5,objrel,Acceptable,NaN,other,PP,CORRECT,CORRECT,2,133,0,0
5,objrel,Acceptable,NaN,other,PP,CORRECT,CORRECT,2,140,0,0
5,objrel,Acceptable,NaN,other,PP,CORRECT,CORRECT,2,187,0,0
5,objrel,Acceptable,NaN,other,PP,CORRECT,CORRECT,2,69,0,0
5,objrel,Acceptable,NaN,other,PP,CORRECT,CORRECT,2,80,0,0
5,objrel,Acceptable,NaN,other,PP,WRONG_INC,WRONG,1,19,0,0
5,objrel,Acceptable,NaN,other,PS,CORRECT,CORRECT,1,102,0,0
5,objrel,Acceptable,NaN,other,PS,CORRECT,CORRECT,1,179,0,0
5,objrel,Acceptable,NaN,other,PS,CORRECT,CORRECT,1,220,0,0
5,objrel,Acceptable,NaN,other,PS,CORRECT,CORRECT,2,161,0,0
5,objrel,Acceptable,NaN,other,PS,CORRECT,CORRECT,2,175,0,0
5,objrel,Acceptable,NaN,other,PS,CORRECT,CORRECT,2,179,0,0
5,objrel,Acceptable,NaN,other,PS,CORRECT,CORRECT,2,215,0,0
5,objrel,Acceptable,NaN,other,PS,CORRECT,CORRECT,2,219,0,0
5,objrel,Acceptable,NaN,other,PS,CORRECT,CORRECT,2,243,0,0
5,objrel,Acceptable,NaN,other,PS,CORRECT,CORRECT,2,97,0,0
5,objrel,Acceptable,NaN,other,SP,CORRECT,CORRECT,1,118,0,0
5,objrel,Acceptable,NaN,other,SP,CORRECT,CORRECT,1,133,0,0
5,objrel,Acceptable,NaN,other,SP,CORRECT,CORRECT,1,43,0,0
5,objrel,Acceptable,NaN,other,SP,CORRECT,CORRECT,2,165,0,0
5,objrel,Acceptable,NaN,other,SP,CORRECT,CORRECT,2,17,0,0
5,objrel,Acceptable,NaN,other,SP,CORRECT,CORRECT,2,22,0,0
5,objrel,Acceptable,NaN,other,SP,CORRECT,CORRECT,2,51,0,0
5,objrel,Acceptable,NaN,other,SP,WRONG_INC,WRONG,1,111,0,0
5,objrel,Acceptable,NaN,other,SP,WRONG_INC,WRONG,2,212,0,0
5,objrel,Acceptable,NaN,other,SP,WRONG_INC,WRONG,2,213,0,0
5,objrel,Acceptable,NaN,other,SS,CORRECT,CORRECT,1,114,0,0
5,objrel,Acceptable,NaN,other,SS,CORRECT,CORRECT,1,138,0,0
5,objrel,Acceptable,NaN,other,SS,CORRECT,CORRECT,1,176,0,0
5,objrel,Acceptable,NaN,other,SS,CORRECT,CORRECT,1,8,0,0
5,objrel,Acceptable,NaN,other,SS,CORRECT,CORRECT,1,89,0,0
5,objrel,Acceptable,NaN,other,SS,CORRECT_DDC,REJECTED,1,237,0,0
5,objrel,Acceptable,NaN,other,SS,CORRECT_DDC,REJECTED,1,246,0,0
5,objrel,Acceptable,NaN,other,SS,WRONG_INC,WRONG,2,128,0,0
5,objrel,Acceptable,NaN,other,SS,WRONG_INC,WRONG,2,221,0,0
5,objrel,Acceptable,NaN,other,SS,WRONG_INC,WRONG,2,257,0,0
5,objrel,Filler,N1,other,PP,CORRECT_INC,CORRECT,1,178,-1,0
5,objrel,Filler,N1,other,PS,CORRECT_INC,CORRECT,1,157,-1,0
5,objrel,Filler,N1,other,PS,CORRECT_INC,CORRECT,1,195,-1,0
5,objrel,Filler,N1,other,PS,CORRECT_INC,CORRECT,2,230,-1,0
5,objrel,Filler,N1,other,PS,CORRECT_INC,CORRECT,2,85,-1,0
5,objrel,Filler,N1,other,SP,CORRECT_INC,CORRECT,1,95,-1,0
5,objrel,Filler,N1,other,SP,CORRECT_INC,CORRECT,2,99,-1,0
5,objrel,Filler,N1,other,SS,CORRECT_INC,CORRECT,1,140,-1,0
5,objrel,Filler,N1,other,SS,CORRECT_INC,CORRECT,1,150,-1,0
5,objrel,Filler,N1,other,SS,CORRECT_INC,CORRECT,2,180,-1,0
5,objrel,Filler,V1,inner,PP,CORRECT_INC,CORRECT,1,209,-4,0
5,objrel,Filler,V1,inner,PP,CORRECT_INC,CORRECT,2,137,-4,0
5,objrel,Filler,V1,inner,PS,CORRECT_INC,CORRECT,1,126,-4,0
5,objrel,Filler,V1,inner,PS,CORRECT_INC,CORRECT,2,106,-4,0
5,objrel,Filler,V1,inner,PS,CORRECT_INC,CORRECT,2,67,-4,0
5,objrel,Filler,V1,inner,SP,CORRECT_INC,CORRECT,1,71,-4,0
5,objrel,Filler,V1,inner,SP,CORRECT_INC,CORRECT,2,217,-4,0
5,objrel,Filler,V1,inner,SP,CORRECT_INC,CORRECT,2,252,-4,0
5,objrel,Filler,V1,inner,SS,CORRECT_INC,CORRECT,1,265,-4,0
5,objrel,Filler,V1,inner,SS,CORRECT_INC,CORRECT,1,42,-4,0
5,objrel,Filler,V1,inner,SS,CORRECT_INC,CORRECT,1,75,-4,0
5,objrel,Filler,V1,inner,SS,CORRECT_INC,CORRECT,2,143,-4,0
5,objrel,Filler,V1,inner,SS,CORRECT_INC,CORRECT,2,259,-4,0
5,objrel,Filler,V1,inner,SS,CORRECT_INC,CORRECT,2,90,-4,0
5,objrel,Filler,V1,inner,SS,WRONG_DDC,REJECTED,1,216,-4,0
5,objrel,Filler,V2,outer,PP,CORRECT_INC,CORRECT,1,254,-5,0
5,objrel,Filler,V2,outer,PP,CORRECT_INC,CORRECT,2,134,-5,0
5,objrel,Filler,V2,outer,PS,CORRECT_INC,CORRECT,1,239,-5,0
5,objrel,Filler,V2,outer,PS,CORRECT_INC,CORRECT,1,63,-5,0
5,objrel,Filler,V2,outer,PS,CORRECT_INC,CORRECT,2,234,-5,0
5,objrel,Filler,V2,outer,PS,CORRECT_INC,CORRECT,2,267,-5,0
5,objrel,Filler,V2,outer,SP,CORRECT_INC,CORRECT,1,108,-5,0
5,objrel,Filler,V2,outer,SP,CORRECT_INC,CORRECT,1,184,-5,0
5,objrel,Filler,V2,outer,SP,CORRECT_INC,CORRECT,1,213,-5,0
5,objrel,Filler,V2,outer,SP,CORRECT_INC,CORRECT,2,115,-5,0
5,objrel,Filler,V2,outer,SP,CORRECT_INC,CORRECT,2,120,-5,0
5,objrel,Filler,V2,outer,SP,CORRECT_INC,CORRECT,2,226,-5,0
5,objrel,Filler,V2,outer,SP,CORRECT_INC,CORRECT,2,96,-5,0
5,objrel,Filler,V2,outer,SS,CORRECT_INC,CORRECT,2,123,-5,0
5,objrel,Filler,V2,outer,SS,CORRECT_INC,CORRECT,2,73,-5,0
5,objrel,Violation,V1,inner,PP,CORRECT_INC,CORRECT,1,38,4,0
5,objrel,Violation,V1,inner,PP,CORRECT_INC,CORRECT,2,13,4,0
5,objrel,Violation,V1,inner,PP,WRONG,WRONG,1,262,4,0
5,objrel,Violation,V1,inner,PP,WRONG,WRONG,2,27,4,0
5,objrel,Violation,V1,inner,PP,WRONG,WRONG,2,39,4,0
5,objrel,Violation,V1,inner,PS,CORRECT_INC,CORRECT,1,51,4,0
5,objrel,Violation,V1,inner,PS,CORRECT_INC,CORRECT,2,1,4,0
5,objrel,Violation,V1,inner,PS,CORRECT_INC,CORRECT,2,191,4,0
5,objrel,Violation,V1,inner,PS,CORRECT_INC,CORRECT,2,211,4,0
5,objrel,Violation,V1,inner,PS,WRONG_DDC,REJECTED,2,262,4,0
5,objrel,Violation,V1,inner,SP,CORRECT_INC,CORRECT,1,82,4,0
5,objrel,Violation,V1,inner,SP,WRONG,WRONG,1,173,4,0
5,objrel,Violation,V1,inner,SP,WRONG,WRONG,1,253,4,0
5,objrel,Violation,V1,inner,SP,WRONG,WRONG,1,62,4,0
5,objrel,Violation,V1,inner,SP,WRONG,WRONG,1,67,4,0
5,objrel,Violation,V1,inner,SS,CORRECT_INC,CORRECT,1,57,4,0
5,objrel,Violation,V1,inner,SS,CORRECT_INC,CORRECT,2,232,4,0
5,objrel,Violation,V1,inner,SS,CORRECT_INC,CORRECT,2,71,4,0
5,objrel,Violation,V1,inner,SS,CORRECT_INC,CORRECT,2,93,4,0
5,objrel,Violation,V1,inner,SS,WRONG,WRONG,2,11,4,0
5,objrel,Violation,V2,outer,PP,CORRECT_INC,CORRECT,1,64,5,0
5,objrel,Violation,V2,outer,PP,CORRECT_INC,CORRECT,2,166,5,0
5,objrel,Violation,V2,outer,PP,CORRECT_INC,CORRECT,2,89,5,0
5,objrel,Violation,V2,outer,PP,WRONG,WRONG,1,174,5,0
5,objrel,Violation,V2,outer,PP,WRONG,WRONG,2,113,5,0
5,objrel,Violation,V2,outer,PS,CORRECT_INC,CORRECT,2,145,5,0
5,objrel,Violation,V2,outer,PS,CORRECT_INC,CORRECT,2,178,5,0
5,objrel,Violation,V2,outer,PS,CORRECT_INC,CORRECT,2,201,5,0
5,objrel,Violation,V2,outer,PS,CORRECT_INC,CORRECT,2,34,5,0
5,objrel,Violation,V2,outer,PS,WRONG,WRONG,1,238,5,0
5,objrel,Violation,V2,outer,SP,CORRECT_INC,CORRECT,2,171,5,0
5,objrel,Violation,V2,outer,SP,CORRECT_INC,CORRECT,2,263,5,0
5,objrel,Violation,V2,outer,SP,CORRECT_INC,CORRECT,2,45,5,0
5,objrel,Violation,V2,outer,SP,WRONG,WRONG,1,130,5,0
5,objrel,Violation,V2,outer,SP,WRONG,WRONG,1,193,5,0
5,objrel,Violation,V2,outer,SS,CORRECT_INC,CORRECT,1,146,5,0
5,objrel,Violation,V2,outer,SS,CORRECT_INC,CORRECT,1,160,5,0
5,objrel,Violation,V2,outer,SS,CORRECT_INC,CORRECT,2,121,5,0
5,objrel,Violation,V2,outer,SS,CORRECT_INC,CORRECT,2,264,5,0
5,objrel,Violation,V2,outer,SS,CORRECT_INC,CORRECT,2,78,5,0
5,objrel_nounpp,Acceptable,NaN,other,PPP,CORRECT,CORRECT,1,177,0,0
5,objrel_nounpp,Acceptable,NaN,other,PPP,CORRECT,CORRECT,1,25,0,0
5,objrel_nounpp,Acceptable,NaN,other,PPP,CORRECT,CORRECT,1,49,0,0
5,objrel_nounpp,Acceptable,NaN,other,PPP,CORRECT,CORRECT,1,79,0,0
5,objrel_nounpp,Acceptable,NaN,other,PPP,CORRECT,CORRECT,2,25,0,0
5,objrel_nounpp,Acceptable,NaN,other,PPP,CORRECT,CORRECT,2,270,0,0
5,objrel_nounpp,Acceptable,NaN,other,PPP,CORRECT_DDC,REJECTED,2,189,0,0
5,objrel_nounpp,Acceptable,NaN,other,PPP,WRONG_INC,WRONG,1,2,0,0
5,objrel_nounpp,Acceptable,NaN,other,PPP,WRONG_INC,WRONG,1,202,0,0
5,objrel_nounpp,Acceptable,NaN,other,PPP,WRONG_INC,WRONG,2,83,0,0
5,objrel_nounpp,Acceptable,NaN,other,PPS,CORRECT,CORRECT,1,186,0,0
5,objrel_nounpp,Acceptable,NaN,other,PPS,CORRECT,CORRECT,1,204,0,0
5,objrel_nounpp,Acceptable,NaN,other,PPS,CORRECT,CORRECT,2,107,0,0
5,objrel_nounpp,Acceptable,NaN,other,PPS,CORRECT,CORRECT,2,125,0,0
5,objrel_nounpp,Acceptable,NaN,other,PPS,CORRECT,CORRECT,2,131,0,0
5,objrel_nounpp,Acceptable,NaN,other,PPS,CORRECT,CORRECT,2,141,0,0
5,objrel_nounpp,Acceptable,NaN,other,PPS,CORRECT,CORRECT,2,218,0,0
5,objrel_nounpp,Acceptable,NaN,other,PPS,CORRECT,CORRECT,2,8,0,0
5,objrel_nounpp,Acceptable,NaN,other,PPS,CORRECT,CORRECT,2,88,0,0
5,objrel_nounpp,Acceptable,NaN,other,PPS,WRONG_INC,WRONG,1,230,0,0
5,objrel_nounpp,Acceptable,NaN,other,PSP,CORRECT,CORRECT,1,110,0,0
5,objrel_nounpp,Acceptable,NaN,other,PSP,CORRECT,CORRECT,1,211,0,0
5,objrel_nounpp,Acceptable,NaN,other,PSP,CORRECT,CORRECT,1,266,0,0
5,objrel_nounpp,Acceptable,NaN,other,PSP,CORRECT,CORRECT,2,142,0,0
5,objrel_nounpp,Acceptable,NaN,other,PSP,CORRECT,CORRECT,2,235,0,0
5,objrel_nounpp,Acceptable,NaN,other,PSP,CORRECT,CORRECT,2,35,0,0
5,objrel_nounpp,Acceptable,NaN,other,PSP,CORRECT,CORRECT,2,4,0,0
5,objrel_nounpp,Acceptable,NaN,other,PSP,CORRECT_DDC,REJECTED,1,196,0,0
5,objrel_nounpp,Acceptable,NaN,other,PSP,WRONG_INC,WRONG,1,4,0,0
5,objrel_nounpp,Acceptable,NaN,other,PSP,WRONG_INC,WRONG,1,44,0,0
5,objrel_nounpp,Acceptable,NaN,other,PSS,CORRECT,CORRECT,1,14,0,0
5,objrel_nounpp,Acceptable,NaN,other,PSS,CORRECT,CORRECT,1,181,0,0
5,objrel_nounpp,Acceptable,NaN,other,PSS,CORRECT,CORRECT,1,185,0,0
5,objrel_nounpp,Acceptable,NaN,other,PSS,CORRECT,CORRECT,1,222,0,0
5,objrel_nounpp,Acceptable,NaN,other,PSS,CORRECT,CORRECT,2,127,0,0
5,objrel_nounpp,Acceptable,NaN,other,PSS,CORRECT,CORRECT,2,149,0,0
5,objrel_nounpp,Acceptable,NaN,other,PSS,CORRECT,CORRECT,2,184,0,0
5,objrel_nounpp,Acceptable,NaN,other,PSS,CORRECT,CORRECT,2,74,0,0
5,objrel_nounpp,Acceptable,NaN,other,PSS,WRONG_INC,WRONG,1,12,0,0
5,objrel_nounpp,Acceptable,NaN,other,PSS,WRONG_INC,WRONG,1,22,0,0
5,objrel_nounpp,Acceptable,NaN,other,SPP,CORRECT,CORRECT,1,112,0,0
5,objrel_nounpp,Acceptable,NaN,other,SPP,CORRECT,CORRECT,1,113,0,0
5,objrel_nounpp,Acceptable,NaN,other,SPP,CORRECT,CORRECT,1,141,0,0
5,objrel_nounpp,Acceptable,NaN,other,SPP,CORRECT,CORRECT,1,166,0,0
5,objrel_nounpp,Acceptable,NaN,other,SPP,CORRECT,CORRECT,1,53,0,0
5,objrel_nounpp,Acceptable,NaN,other,SPP,CORRECT,CORRECT,1,99,0,0
5,objrel_nounpp,Acceptable,NaN,other,SPP,CORRECT,CORRECT,2,38,0,0
5,objrel_nounpp,Acceptable,NaN,other,SPP,CORRECT,CORRECT,2,43,0,0
5,objrel_nounpp,Acceptable,NaN,other,SPP,CORRECT_INC,CORRECT,1,119,0,0
5,objrel_nounpp,Acceptable,NaN,other,SPP,WRONG_INC,WRONG,1,30,0,0
5,objrel_nounpp,Acceptable,NaN,other,SPS,CORRECT,CORRECT,1,109,0,0
5,objrel_nounpp,Acceptable,NaN,other,SPS,CORRECT,CORRECT,1,124,0,0
5,objrel_nounpp,Acceptable,NaN,other,SPS,CORRECT,CORRECT,1,37,0,0
5,objrel_nounpp,Acceptable,NaN,other,SPS,CORRECT,CORRECT,2,151,0,0
5,objrel_nounpp,Acceptable,NaN,other,SPS,CORRECT,CORRECT,2,207,0,0
5,objrel_nounpp,Acceptable,NaN,other,SPS,CORRECT,CORRECT,2,266,0,0
5,objrel_nounpp,Acceptable,NaN,other,SPS,CORRECT,CORRECT,2,94,0,0
5,objrel_nounpp,Acceptable,NaN,other,SPS,WRONG_INC,WRONG,1,247,0,0
5,objrel_nounpp,Acceptable,NaN,other,SPS,WRONG_INC,WRONG,2,49,0,0
5,objrel_nounpp,Acceptable,NaN,other,SPS,WRONG_INC,WRONG,2,66,0,0
5,objrel_nounpp,Acceptable,NaN,other,SSP,CORRECT,CORRECT,1,268,0,0
5,objrel_nounpp,Acceptable,NaN,other,SSP,CORRECT,CORRECT,1,3,0,0
5,objrel_nounpp,Acceptable,NaN,other,SSP,CORRECT,CORRECT,1,7,0,0
5,objrel_nounpp,Acceptable,NaN,other,SSP,CORRECT,CORRECT,1,90,0,0
5,objrel_nounpp,Acceptable,NaN,other,SSP,CORRECT,CORRECT,1,94,0,0
5,objrel_nounpp,Acceptable,NaN,other,SSP,CORRECT,CORRECT,2,159,0,0
5,objrel_nounpp,Acceptable,NaN,other,SSP,CORRECT,CORRECT,2,174,0,0
5,objrel_nounpp,Acceptable,NaN,other,SSP,CORRECT,CORRECT,2,241,0,0
5,objrel_nounpp,Acceptable,NaN,other,SSP,CORRECT_DDC,REJECTED,2,135,0,0
5,objrel_nounpp,Acceptable,NaN,other,SSP,WRONG_INC,WRONG,2,20,0,0
5,objrel_nounpp,Acceptable,NaN,other,SSS,CORRECT,CORRECT,1,190,0,0
5,objrel_nounpp,Acceptable,NaN,other,SSS,CORRECT,CORRECT,1,207,0,0
5,objrel_nounpp,Acceptable,NaN,other,SSS,CORRECT,CORRECT,1,235,0,0
5,objrel_nounpp,Acceptable,NaN,other,SSS,CORRECT,CORRECT,1,32,0,0
5,objrel_nounpp,Acceptable,NaN,other,SSS,CORRECT,CORRECT,2,168,0,0
5,objrel_nounpp,Acceptable,NaN,other,SSS,CORRECT,CORRECT,2,198,0,0
5,objrel_nounpp,Acceptable,NaN,other,SSS,CORRECT,CORRECT,2,205,0,0
5,objrel_nounpp,Acceptable,NaN,other,SSS,CORRECT_INC,CORRECT,1,258,0,0
5,objrel_nounpp,Acceptable,NaN,other,SSS,WRONG_INC,WRONG,1,199,0,0
5,objrel_nounpp,Acceptable,NaN,other,SSS,WRONG_INC,WRONG,1,249,0,0
5,objrel_nounpp,Filler,N1,other,PPP,WRONG,WRONG,1,121,-1,0
5,objrel_nounpp,Filler,N1,other,PSP,CORRECT_INC,CORRECT,1,142,-1,0
5,objrel_nounpp,Filler,N1,other,PSP,CORRECT_INC,CORRECT,1,80,-1,0
5,objrel_nounpp,Filler,N1,other,PSP,CORRECT_INC,CORRECT,2,268,-1,0
5,objrel_nounpp,Filler,N1,other,PSS,CORRECT_INC,CORRECT,1,229,-1,0
5,objrel_nounpp,Filler,N1,other,PSS,CORRECT_INC,CORRECT,2,251,-1,0
5,objrel_nounpp,Filler,N1,other,SPP,CORRECT_INC,CORRECT,1,134,-1,0
5,objrel_nounpp,Filler,N1,other,SSS,CORRECT_INC,CORRECT,1,116,-1,0
5,objrel_nounpp,Filler,N1,other,SSS,CORRECT_INC,CORRECT,2,21,-1,0
5,objrel_nounpp,Filler,N1,other,SSS,CORRECT_INC,CORRECT,2,261,-1,0
5,objrel_nounpp,Filler,N2,other,PPP,CORRECT_INC,CORRECT,2,103,-3,0
5,objrel_nounpp,Filler,N2,other,PSP,CORRECT_INC,CORRECT,2,172,-3,0
5,objrel_nounpp,Filler,N2,other,SPP,CORRECT_INC,CORRECT,1,172,-3,0
5,objrel_nounpp,Filler,N2,other,SPP,CORRECT_INC,CORRECT,2,75,-3,0
5,objrel_nounpp,Filler,N2,other,SPS,CORRECT_INC,CORRECT,1,9,-3,0
5,objrel_nounpp,Filler,N2,other,SSP,CORRECT_INC,CORRECT,2,95,-3,0
5,objrel_nounpp,Filler,N2,other,SSS,CORRECT_INC,CORRECT,2,194,-3,0
5,objrel_nounpp,Filler,N2,other,SSS,CORRECT_INC,CORRECT,2,210,-3,0
5,objrel_nounpp,Filler,N2,other,SSS,CORRECT_INC,CORRECT,2,255,-3,0
5,objrel_nounpp,Filler,N2,other,SSS,WRONG,WRONG,2,176,-3,0
5,objrel_nounpp,Filler,V1,inner,PPP,CORRECT_INC,CORRECT,1,11,-7,0
5,objrel_nounpp,Filler,V1,inner,PPP,CORRECT_INC,CORRECT,2,250,-7,0
5,objrel_nounpp,Filler,V1,inner,PPP,WRONG,WRONG,1,107,-7,0
5,objrel_nounpp,Filler,V1,inner,PPS,CORRECT_INC,CORRECT,1,161,-7,0
5,objrel_nounpp,Filler,V1,inner,PPS,CORRECT_INC,CORRECT,2,58,-7,0
5,objrel_nounpp,Filler,V1,inner,PSP,CORRECT_INC,CORRECT,2,81,-7,0
5,objrel_nounpp,Filler,V1,inner,PSS,CORRECT_INC,CORRECT,1,227,-7,0
5,objrel_nounpp,Filler,V1,inner,PSS,CORRECT_INC,CORRECT,1,93,-7,0
5,objrel_nounpp,Filler,V1,inner,PSS,CORRECT_INC,CORRECT,2,240,-7,0
5,objrel_nounpp,Filler,V1,inner,PSS,CORRECT_INC,CORRECT,2,33,-7,0
5,objrel_nounpp,Filler,V1,inner,SPP,CORRECT_INC,CORRECT,1,223,-7,0
5,objrel_nounpp,Filler,V1,inner,SPP,CORRECT_INC,CORRECT,1,244,-7,0
5,objrel_nounpp,Filler,V1,inner,SPP,CORRECT_INC,CORRECT,1,48,-7,0
5,objrel_nounpp,Filler,V1,inner,SPP,CORRECT_INC,CORRECT,1,59,-7,0
5,objrel_nounpp,Filler,V1,inner,SPP,CORRECT_INC,CORRECT,2,23,-7,0
5,objrel_nounpp,Filler,V1,inner,SPP,CORRECT_INC,CORRECT,2,253,-7,0
5,objrel_nounpp,Filler,V1,inner,SPP,CORRECT_INC,CORRECT,2,63,-7,0
5,objrel_nounpp,Filler,V1,inner,SPP,WRONG,WRONG,1,158,-7,0
5,objrel_nounpp,Filler,V1,inner,SPP,WRONG,WRONG,2,129,-7,0
5,objrel_nounpp,Filler,V1,inner,SPP,WRONG_INC,WRONG,2,12,-7,-1.5917
5,objrel_nounpp,Filler,V1,inner,SPS,CORRECT_INC,CORRECT,1,103,-7,0
5,objrel_nounpp,Filler,V1,inner,SPS,CORRECT_INC,CORRECT,1,163,-7,0
5,objrel_nounpp,Filler,V1,inner,SPS,CORRECT_INC,CORRECT,1,171,-7,0
5,objrel_nounpp,Filler,V1,inner,SPS,CORRECT_INC,CORRECT,1,232,-7,0
5,objrel_nounpp,Filler,V1,inner,SPS,CORRECT_INC,CORRECT,1,248,-7,0
5,objrel_nounpp,Filler,V1,inner,SPS,CORRECT_INC,CORRECT,2,169,-7,0
5,objrel_nounpp,Filler,V1,inner,SPS,CORRECT_INC,CORRECT,2,57,-7,0
5,objrel_nounpp,Filler,V1,inner,SPS,WRONG,WRONG,1,191,-7,0
5,objrel_nounpp,Filler,V1,inner,SSP,CORRECT_INC,CORRECT,2,138,-7,0
5,objrel_nounpp,Filler,V1,inner,SSS,CORRECT_INC,CORRECT,1,96,-7,0
5,objrel_nounpp,Filler,V2,outer,PPP,CORRECT_INC,CORRECT,1,56,-8,0
5,objrel_nounpp,Filler,V2,outer,PPP,WRONG,WRONG,2,118,-8,0
5,objrel_nounpp,Filler,V2,outer,PPP,WRONG_DDC,REJECTED,1,40,-8,0
5,objrel_nounpp,Filler,V2,outer,PPS,CORRECT_INC,CORRECT,1,16,-8,0
5,objrel_nounpp,Filler,V2,outer,PPS,CORRECT_INC,CORRECT,2,82,-8,0
5,objrel_nounpp,Filler,V2,outer,PPS,WRONG,WRONG,2,41,-8,0
5,objrel_nounpp,Filler,V2,outer,PSP,CORRECT_INC,CORRECT,1,1,-8,0
5,objrel_nounpp,Filler,V2,outer,PSP,CORRECT_INC,CORRECT,1,148,-8,0
5,objrel_nounpp,Filler,V2,outer,PSP,CORRECT_INC,CORRECT,2,200,-8,0
5,objrel_nounpp,Filler,V2,outer,PSP,CORRECT_INC,CORRECT,2,36,-8,0
5,objrel_nounpp,Filler,V2,outer,PSP,CORRECT_INC,CORRECT,2,52,-8,0
5,objrel_nounpp,Filler,V2,outer,PSP,CORRECT_INC,CORRECT,2,79,-8,0
5,objrel_nounpp,Filler,V2,outer,PSP,WRONG,WRONG,1,143,-8,0
5,objrel_nounpp,Filler,V2,outer,PSP,WRONG,WRONG,1,50,-8,0
5,objrel_nounpp,Filler,V2,outer,PSS,CORRECT_INC,CORRECT,1,240,-8,0
5,objrel_nounpp,Filler,V2,outer,PSS,CORRECT_INC,CORRECT,1,259,-8,0
5,objrel_nounpp,Filler,V2,outer,PSS,CORRECT_INC,CORRECT,2,32,-8,0
5,objrel_nounpp,Filler,V2,outer,SPP,CORRECT_INC,CORRECT,1,159,-8,0
5,objrel_nounpp,Filler,V2,outer,SPP,CORRECT_INC,CORRECT,1,188,-8,0
5,objrel_nounpp,Filler,V2,outer,SPP,CORRECT_INC,CORRECT,1,23,-8,0
5,objrel_nounpp,Filler,V2,outer,SPP,WRONG,WRONG,1,263,-8,0
5,objrel_nounpp,Filler,V2,outer,SPS,CORRECT_INC,CORRECT,1,245,-8,0
5,objrel_nounpp,Filler,V2,outer,SPS,CORRECT_INC,CORRECT,2,164,-8,0
5,objrel_nounpp,Filler,V2,outer,SPS,CORRECT_INC,CORRECT,2,84,-8,0
5,objrel_nounpp,Filler,V2,outer,SSP,CORRECT_INC,CORRECT,1,212,-8,0
5,objrel_nounpp,Filler,V2,outer,SSP,CORRECT_INC,CORRECT,2,193,-8,0
5,objrel_nounpp,Filler,V2,outer,SSP,WRONG,WRONG,1,125,-8,0
5,objrel_nounpp,Filler,V2,outer,SSS,CORRECT_INC,CORRECT,1,225,-8,0
5,objrel_nounpp,Filler,V2,outer,SSS,CORRECT_INC,CORRECT,1,88,-8,0
5,objrel_nounpp,Filler,V2,outer,SSS,CORRECT_INC,CORRECT,2,265,-8,0
5,objrel_nounpp,Violation,V1,inner,PPP,CORRECT_INC,CORRECT,1,106,7,0
5,objrel_nounpp,Violation,V1,inner,PPP,CORRECT_INC,CORRECT,2,132,7,0
5,objrel_nounpp,Violation,V1,inner,PPP,CORRECT_INC,CORRECT,2,146,7,0
5,objrel_nounpp,Violation,V1,inner,PPP,CORRECT_INC,CORRECT,2,256,7,0
5,objrel_nounpp,Violation,V1,inner,PPP,WRONG,WRONG,1,180,7,0
5,objrel_nounpp,Violation,V1,inner,PPS,CORRECT_INC,CORRECT,1,33,7,0
5,objrel_nounpp,Violation,V1,inner,PPS,CORRECT_INC,CORRECT,1,86,7,0
5,objrel_nounpp,Violation,V1,inner,PPS,CORRECT_INC,CORRECT,2,148,7,0
5,objrel_nounpp,Violation,V1,inner,PPS,WRONG,WRONG,2,109,7,0
5,objrel_nounpp,Violation,V1,inner,PPS,WRONG,WRONG,2,37,7,0
5,objrel_nounpp,Violation,V1,inner,PSP,CORRECT_INC,CORRECT,2,139,7,0
5,objrel_nounpp,Violation,V1,inner,PSP,WRONG,WRONG,1,101,7,0
5,objrel_nounpp,Violation,V1,inner,PSP,WRONG,WRONG,1,256,7,0
5,objrel_nounpp,Violation,V1,inner,PSP,WRONG,WRONG,2,15,7,0
5,objrel_nounpp,Violation,V1,inner,PSP,WRONG_INC,WRONG,2,10,7,-0.60063
5,objrel_nounpp,Violation,V1,inner,PSS,CORRECT_INC,CORRECT,1,251,7,0
5,objrel_nounpp,Violation,V1,inner,PSS,CORRECT_INC,CORRECT,2,182,7,0
5,objrel_nounpp,Violation,V1,inner,PSS,WRONG,WRONG,1,73,7,0
5,objrel_nounpp,Violation,V1,inner,PSS,WRONG,WRONG,1,76,7,0
5,objrel_nounpp,Violation,V1,inner,PSS,WRONG_DDC,REJECTED,1,201,7,0
5,objrel_nounpp,Violation,V1,inner,SPP,CORRECT_INC,CORRECT,1,152,7,0
5,objrel_nounpp,Violation,V1,inner,SPP,WRONG,WRONG,2,229,7,0
5,objrel_nounpp,Violation,V1,inner,SPP,WRONG,WRONG,2,44,7,0
5,objrel_nounpp,Violation,V1,inner,SPP,WRONG,WRONG,2,70,7,0
5,objrel_nounpp,Violation,V1,inner,SPP,WRONG,WRONG,2,72,7,0
5,objrel_nounpp,Violation,V1,inner,SPS,CORRECT_INC,CORRECT,1,197,7,0
5,objrel_nounpp,Violation,V1,inner,SPS,CORRECT_INC,CORRECT,1,61,7,0
5,objrel_nounpp,Violation,V1,inner,SPS,WRONG,WRONG,1,115,7,0
5,objrel_nounpp,Violation,V1,inner,SPS,WRONG,WRONG,1,206,7,0
5,objrel_nounpp,Violation,V1,inner,SPS,WRONG,WRONG,2,158,7,0
5,objrel_nounpp,Violation,V1,inner,SSP,CORRECT_INC,CORRECT,1,267,7,0
5,objrel_nounpp,Violation,V1,inner,SSP,CORRECT_INC,CORRECT,2,122,7,0
5,objrel_nounpp,Violation,V1,inner,SSP,CORRECT_INC,CORRECT,2,183,7,0
5,objrel_nounpp,Violation,V1,inner,SSP,WRONG,WRONG,1,10,7,0
5,objrel_nounpp,Violation,V1,inner,SSP,WRONG,WRONG,1,183,7,0
5,objrel_nounpp,Violation,V1,inner,SSS,CORRECT_INC,CORRECT,1,21,7,0
5,objrel_nounpp,Violation,V1,inner,SSS,CORRECT_INC,CORRECT,1,215,7,0
5,objrel_nounpp,Violation,V1,inner,SSS,CORRECT_INC,CORRECT,1,68,7,0
5,objrel_nounpp,Violation,V1,inner,SSS,CORRECT_INC,CORRECT,1,92,7,0
5,objrel_nounpp,Violation,V1,inner,SSS,WRONG,WRONG,1,231,7,0
5,objrel_nounpp,Violation,V2,outer,PPP,CORRECT_INC,CORRECT,1,27,8,0
5,objrel_nounpp,Violation,V2,outer,PPP,CORRECT_INC,CORRECT,1,41,8,0
5,objrel_nounpp,Violation,V2,outer,PPP,CORRECT_INC,CORRECT,2,190,8,0
5,objrel_nounpp,Violation,V2,outer,PPP,CORRECT_INC,CORRECT,2,227,8,0
5,objrel_nounpp,Violation,V2,outer,PPP,WRONG,WRONG,1,122,8,0
5,objrel_nounpp,Violation,V2,outer,PPS,CORRECT_INC,CORRECT,1,203,8,0
5,objrel_nounpp,Violation,V2,outer,PPS,CORRECT_INC,CORRECT,1,84,8,0
5,objrel_nounpp,Violation,V2,outer,PPS,CORRECT_INC,CORRECT,2,203,8,0
5,objrel_nounpp,Violation,V2,outer,PPS,WRONG,WRONG,2,116,8,0
5,objrel_nounpp,Violation,V2,outer,PPS,WRONG,WRONG,2,3,8,0
5,objrel_nounpp,Violation,V2,outer,PSP,CORRECT_INC,CORRECT,2,130,8,0
5,objrel_nounpp,Violation,V2,outer,PSP,CORRECT_INC,CORRECT,2,236,8,0
5,objrel_nounpp,Violation,V2,outer,PSP,CORRECT_INC,CORRECT,2,237,8,0
5,objrel_nounpp,Violation,V2,outer,PSP,CORRECT_INC,CORRECT,2,29,8,0
5,objrel_nounpp,Violation,V2,outer,PSP,WRONG,WRONG,1,270,8,0
5,objrel_nounpp,Violation,V2,outer,PSS,CORRECT,CORRECT,2,155,8,-0.18933
5,objrel_nounpp,Violation,V2,outer,PSS,CORRECT_INC,CORRECT,2,204,8,0
5,objrel_nounpp,Violation,V2,outer,PSS,CORRECT_INC,CORRECT,2,258,8,0
5,objrel_nounpp,Violation,V2,outer,PSS,CORRECT_INC,CORRECT,2,260,8,0
5,objrel_nounpp,Violation,V2,outer,PSS,WRONG,WRONG,1,74,8,0
5,objrel_nounpp,Violation,V2,outer,SPP,CORRECT_INC,CORRECT,1,151,8,0
5,objrel_nounpp,Violation,V2,outer,SPP,CORRECT_INC,CORRECT,1,91,8,0
5,objrel_nounpp,Violation,V2,outer,SPP,CORRECT_INC,CORRECT,2,246,8,0
5,objrel_nounpp,Violation,V2,outer,SPP,CORRECT_INC,CORRECT,2,53,8,0
5,objrel_nounpp,Violation,V2,outer,SPP,WRONG,WRONG,1,81,8,0
5,objrel_nounpp,Violation,V2,outer,SPS,CORRECT_INC,CORRECT,2,195,8,0
5,objrel_nounpp,Violation,V2,outer,SPS,CORRECT_INC,CORRECT,2,244,8,0
5,objrel_nounpp,Violation,V2,outer,SPS,WRONG,WRONG,2,86,8,0
5,objrel_nounpp,Violation,V2,outer,SPS,WRONG,WRONG,2,87,8,0
5,objrel_nounpp,Violation,V2,outer,SPS,WRONG_DDC,REJECTED,1,200,8,0
5,objrel_nounpp,Violation,V2,outer,SSP,WRONG,WRONG,1,136,8,0
5,objrel_nounpp,Violation,V2,outer,SSP,WRONG,WRONG,1,187,8,0
5,objrel_nounpp,Violation,V2,outer,SSP,WRONG,WRONG,2,110,8,0
5,objrel_nounpp,Violation,V2,outer,SSP,WRONG,WRONG,2,50,8,0
5,objrel_nounpp,Violation,V2,outer,SSP,WRONG_DDC,REJECTED,1,144,8,0
5,objrel_nounpp,Violation,V2,outer,SSS,CORRECT_INC,CORRECT,2,6,8,0
5,objrel_nounpp,Violation,V2,outer,SSS,WRONG,WRONG,1,194,8,0
5,objrel_nounpp,Violation,V2,outer,SSS,WRONG,WRONG,2,136,8,0
5,objrel_nounpp,Violation,V2,outer,SSS,WRONG_DDC,REJECTED,1,260,8,0
5,objrel_nounpp,Violation,V2,outer,SSS,WRONG_DDC,REJECTED,1,66,8,0
6,embedding_mental_LR,Acceptable,NaN,other,PPP,CORRECT,CORRECT,1,105,0,0
6,embedding_mental_LR,Acceptable,NaN,other,PPP,CORRECT,CORRECT,1,106,0,0
6,embedding_mental_LR,Acceptable,NaN,other,PPP,CORRECT,CORRECT,1,107,0,0
6,embedding_mental_LR,Acceptable,NaN,other,PPP,CORRECT,CORRECT,1,48,0,0
6,embedding_mental_LR,Acceptable,NaN,other,PPP,CORRECT,CORRECT,2,77,0,0
6,embedding_mental_LR,Acceptable,NaN,other,PPS,CORRECT,CORRECT,1,206,0,0
6,embedding_mental_LR,Acceptable,NaN,other,PPS,CORRECT,CORRECT,2,159,0,0
6,embedding_mental_LR,Acceptable,NaN,other,PPS,CORRECT,CORRECT,2,167,0,0
6,embedding_mental_LR,Acceptable,NaN,other,PPS,CORRECT,CORRECT,2,28,0,0
6,embedding_mental_LR,Acceptable,NaN,other,PPS,CORRECT_INC,CORRECT,1,220,0,0
6,embedding_mental_LR,Acceptable,NaN,other,PSP,CORRECT,CORRECT,1,232,0,0
6,embedding_mental_LR,Acceptable,NaN,other,PSP,CORRECT,CORRECT,1,68,0,0
6,embedding_mental_LR,Acceptable,NaN,other,PSP,CORRECT,CORRECT,2,162,0,0
6,embedding_mental_LR,Acceptable,NaN,other,PSP,CORRECT,CORRECT,2,229,0,0
6,embedding_mental_LR,Acceptable,NaN,other,PSP,CORRECT_INC,CORRECT,2,193,0,0
6,embedding_mental_LR,Acceptable,NaN,other,PSS,CORRECT,CORRECT,1,214,0,0
6,embedding_mental_LR,Acceptable,NaN,other,PSS,CORRECT,CORRECT,1,79,0,0
6,embedding_mental_LR,Acceptable,NaN,other,PSS,CORRECT,CORRECT,2,234,0,0
6,embedding_mental_LR,Acceptable,NaN,other,PSS,CORRECT_INC,CORRECT,2,56,0,0
6,embedding_mental_LR,Acceptable,NaN,other,PSS,WRONG_INC,WRONG,1,215,0,0
6,embedding_mental_LR,Acceptable,NaN,other,SPP,CORRECT,CORRECT,1,147,0,0
6,embedding_mental_LR,Acceptable,NaN,other,SPP,CORRECT,CORRECT,1,242,0,0
6,embedding_mental_LR,Acceptable,NaN,other,SPP,CORRECT,CORRECT,1,257,0,0
6,embedding_mental_LR,Acceptable,NaN,other,SPP,CORRECT,CORRECT,1,37,0,0
6,embedding_mental_LR,Acceptable,NaN,other,SPP,CORRECT_INC,CORRECT,2,243,0,0
6,embedding_mental_LR,Acceptable,NaN,other,SPS,CORRECT,CORRECT,1,199,0,0
6,embedding_mental_LR,Acceptable,NaN,other,SPS,CORRECT,CORRECT,1,223,0,0
6,embedding_mental_LR,Acceptable,NaN,other,SPS,CORRECT,CORRECT,1,244,0,0
6,embedding_mental_LR,Acceptable,NaN,other,SPS,CORRECT,CORRECT,2,154,0,0
6,embedding_mental_LR,Acceptable,NaN,other,SPS,CORRECT,CORRECT,2,192,0,0
6,embedding_mental_LR,Acceptable,NaN,other,SSP,CORRECT,CORRECT,1,234,0,0
6,embedding_mental_LR,Acceptable,NaN,other,SSP,CORRECT,CORRECT,1,248,0,0
6,embedding_mental_LR,Acceptable,NaN,other,SSP,CORRECT,CORRECT,1,267,0,0
6,embedding_mental_LR,Acceptable,NaN,other,SSP,CORRECT,CORRECT,1,269,0,0
6,embedding_mental_LR,Acceptable,NaN,other,SSP,CORRECT,CORRECT,2,25,0,0
6,embedding_mental_LR,Acceptable,NaN,other,SSS,CORRECT,CORRECT,1,175,0,0
6,embedding_mental_LR,Acceptable,NaN,other,SSS,CORRECT,CORRECT,2,114,0,0
6,embedding_mental_LR,Acceptable,NaN,other,SSS,CORRECT,CORRECT,2,152,0,0
6,embedding_mental_LR,Acceptable,NaN,other,SSS,CORRECT,CORRECT,2,26,0,0
6,embedding_mental_LR,Acceptable,NaN,other,SSS,CORRECT_INC,CORRECT,1,125,0,0
6,embedding_mental_LR,Filler,N2,other,PPS,CORRECT_INC,CORRECT,1,19,-4,0
6,embedding_mental_LR,Filler,N2,other,PPS,CORRECT_INC,CORRECT,2,239,-4,0
6,embedding_mental_LR,Filler,N2,other,PPS,CORRECT_INC,CORRECT,2,51,-4,0
6,embedding_mental_LR,Filler,N2,other,SPP,CORRECT_INC,CORRECT,1,17,-4,0
6,embedding_mental_LR,Filler,N2,other,SPP,CORRECT_INC,CORRECT,2,231,-4,0
6,embedding_mental_LR,Filler,N2,other,SPP,WRONG,WRONG,1,138,-4,0
6,embedding_mental_LR,Filler,N2,other,SPS,CORRECT_INC,CORRECT,2,5,-4,0
6,embedding_mental_LR,Filler,N2,other,SSP,CORRECT_INC,CORRECT,2,39,-4,0
6,embedding_mental_LR,Filler,N2,other,SSS,CORRECT_INC,CORRECT,1,154,-4,0
6,embedding_mental_LR,Filler,N2,other,SSS,CORRECT_INC,CORRECT,1,65,-4,0
6,embedding_mental_LR,Filler,V2,inner,PPP,CORRECT_INC,CORRECT,1,224,-7,0
6,embedding_mental_LR,Filler,V2,inner,PPP,CORRECT_INC,CORRECT,1,253,-7,0
6,embedding_mental_LR,Filler,V2,inner,PPP,CORRECT_INC,CORRECT,1,52,-7,0
6,embedding_mental_LR,Filler,V2,inner,PPP,CORRECT_INC,CORRECT,2,29,-7,0
6,embedding_mental_LR,Filler,V2,inner,PPS,CORRECT_INC,CORRECT,1,14,-7,0
6,embedding_mental_LR,Filler,V2,inner,PPS,CORRECT_INC,CORRECT,1,226,-7,0
6,embedding_mental_LR,Filler,V2,inner,PPS,CORRECT_INC,CORRECT,2,85,-7,0
6,embedding_mental_LR,Filler,V2,inner,PSP,CORRECT_INC,CORRECT,1,264,-7,0
6,embedding_mental_LR,Filler,V2,inner,PSP,CORRECT_INC,CORRECT,1,98,-7,0
6,embedding_mental_LR,Filler,V2,inner,PSP,CORRECT_INC,CORRECT,2,225,-7,0
6,embedding_mental_LR,Filler,V2,inner,PSP,CORRECT_INC,CORRECT,2,71,-7,0
6,embedding_mental_LR,Filler,V2,inner,PSS,CORRECT_INC,CORRECT,1,149,-7,0
6,embedding_mental_LR,Filler,V2,inner,PSS,CORRECT_INC,CORRECT,1,162,-7,0
6,embedding_mental_LR,Filler,V2,inner,PSS,CORRECT_INC,CORRECT,1,22,-7,0
6,embedding_mental_LR,Filler,V2,inner,PSS,CORRECT_INC,CORRECT,2,147,-7,0
6,embedding_mental_LR,Filler,V2,inner,PSS,WRONG,WRONG,1,126,-7,0
6,embedding_mental_LR,Filler,V2,inner,SPP,CORRECT_INC,CORRECT,1,187,-7,0
6,embedding_mental_LR,Filler,V2,inner,SPS,CORRECT_INC,CORRECT,1,176,-7,0
6,embedding_mental_LR,Filler,V2,inner,SPS,CORRECT_INC,CORRECT,2,122,-7,0
6,embedding_mental_LR,Filler,V2,inner,SPS,CORRECT_INC,CORRECT,2,143,-7,0
6,embedding_mental_LR,Filler,V2,inner,SPS,CORRECT_INC,CORRECT,2,46,-7,0
6,embedding_mental_LR,Filler,V2,inner,SPS,CORRECT_INC,CORRECT,2,86,-7,0
6,embedding_mental_LR,Filler,V2,inner,SSP,CORRECT_INC,CORRECT,1,167,-7,0
6,embedding_mental_LR,Filler,V2,inner,SSP,CORRECT_INC,CORRECT,1,194,-7,0
6,embedding_mental_LR,Filler,V2,inner,SSP,CORRECT_INC,CORRECT,1,212,-7,0
6,embedding_mental_LR,Filler,V2,inner,SSP,CORRECT_INC,CORRECT,1,31,-7,0
6,embedding_mental_LR,Filler,V2,inner,SSP,CORRECT_INC,CORRECT,2,41,-7,0
6,embedding_mental_LR,Filler,V2,inner,SSS,CORRECT_INC,CORRECT,1,148,-7,0
6,embedding_mental_LR,Filler,V2,inner,SSS,CORRECT_INC,CORRECT,1,27,-7,0
6,embedding_mental_LR,Filler,V2,inner,SSS,CORRECT_INC,CORRECT,2,141,-7,0
6,embedding_mental_LR,Violation,V2,inner,PPP,CORRECT_INC,CORRECT,1,211,7,0
6,embedding_mental_LR,Violation,V2,inner,PPP,CORRECT_INC,CORRECT,1,250,7,0
6,embedding_mental_LR,Violation,V2,inner,PPP,CORRECT_INC,CORRECT,2,174,7,0
6,embedding_mental_LR,Violation,V2,inner,PPP,CORRECT_INC,CORRECT,2,212,7,0
6,embedding_mental_LR,Violation,V2,inner,PPP,CORRECT_INC,CORRECT,2,38,7,0
6,embedding_mental_LR,Violation,V2,inner,PPS,CORRECT_INC,CORRECT,1,181,7,0
6,embedding_mental_LR,Violation,V2,inner,PPS,CORRECT_INC,CORRECT,1,192,7,0
6,embedding_mental_LR,Violation,V2,inner,PPS,CORRECT_INC,CORRECT,2,124,7,0
6,embedding_mental_LR,Violation,V2,inner,PPS,CORRECT_INC,CORRECT,2,254,7,0
6,embedding_mental_LR,Violation,V2,inner,PPS,CORRECT_INC,CORRECT,2,92,7,0
6,embedding_mental_LR,Violation,V2,inner,PSP,CORRECT_INC,CORRECT,1,143,7,0
6,embedding_mental_LR,Violation,V2,inner,PSP,CORRECT_INC,CORRECT,1,155,7,0
6,embedding_mental_LR,Violation,V2,inner,PSP,CORRECT_INC,CORRECT,2,106,7,0
6,embedding_mental_LR,Violation,V2,inner,PSP,CORRECT_INC,CORRECT,2,246,7,0
6,embedding_mental_LR,Violation,V2,inner,PSP,CORRECT_INC,CORRECT,2,3,7,0
6,embedding_mental_LR,Violation,V2,inner,PSS,CORRECT_INC,CORRECT,1,229,7,0
6,embedding_mental_LR,Violation,V2,inner,PSS,CORRECT_INC,CORRECT,1,265,7,0
6,embedding_mental_LR,Violation,V2,inner,PSS,CORRECT_INC,CORRECT,2,101,7,0
6,embedding_mental_LR,Violation,V2,inner,PSS,CORRECT_INC,CORRECT,2,157,7,0
6,embedding_mental_LR,Violation,V2,inner,PSS,CORRECT_INC,CORRECT,2,2,7,0
6,embedding_mental_LR,Violation,V2,inner,SPP,CORRECT_INC,CORRECT,1,118,7,0
6,embedding_mental_LR,Violation,V2,inner,SPP,CORRECT_INC,CORRECT,1,190,7,0
6,embedding_mental_LR,Violation,V2,inner,SPP,CORRECT_INC,CORRECT,1,268,7,0
6,embedding_mental_LR,Violation,V2,inner,SPP,CORRECT_INC,CORRECT,2,169,7,0
6,embedding_mental_LR,Violation,V2,inner,SPP,CORRECT_INC,CORRECT,2,76,7,0
6,embedding_mental_LR,Violation,V2,inner,SPS,CORRECT_INC,CORRECT,1,266,7,0
6,embedding_mental_LR,Violation,V2,inner,SPS,CORRECT_INC,CORRECT,1,4,7,0
6,embedding_mental_LR,Violation,V2,inner,SPS,CORRECT_INC,CORRECT,2,223,7,0
6,embedding_mental_LR,Violation,V2,inner,SPS,CORRECT_INC,CORRECT,2,27,7,0
6,embedding_mental_LR,Violation,V2,inner,SPS,CORRECT_INC,CORRECT,2,33,7,0
6,embedding_mental_LR,Violation,V2,inner,SSP,CORRECT_INC,CORRECT,1,116,7,0
6,embedding_mental_LR,Violation,V2,inner,SSP,CORRECT_INC,CORRECT,1,99,7,0
6,embedding_mental_LR,Violation,V2,inner,SSP,CORRECT_INC,CORRECT,2,150,7,0
6,embedding_mental_LR,Violation,V2,inner,SSP,CORRECT_INC,CORRECT,2,247,7,0
6,embedding_mental_LR,Violation,V2,inner,SSP,CORRECT_INC,CORRECT,2,60,7,0
6,embedding_mental_LR,Violation,V2,inner,SSS,CORRECT_INC,CORRECT,1,34,7,0
6,embedding_mental_LR,Violation,V2,inner,SSS,CORRECT_INC,CORRECT,1,96,7,0
6,embedding_mental_LR,Violation,V2,inner,SSS,CORRECT_INC,CORRECT,2,107,7,0
6,embedding_mental_LR,Violation,V2,inner,SSS,CORRECT_INC,CORRECT,2,54,7,0
6,embedding_mental_LR,Violation,V2,inner,SSS,WRONG_DDC,REJECTED,1,255,7,0
6,embedding_mental_SR,Acceptable,NaN,other,PP,CORRECT,CORRECT,1,84,0,0
6,embedding_mental_SR,Acceptable,NaN,other,PP,CORRECT,CORRECT,2,241,0,0
6,embedding_mental_SR,Acceptable,NaN,other,PP,CORRECT,CORRECT,2,81,0,0
6,embedding_mental_SR,Acceptable,NaN,other,PP,CORRECT_INC,CORRECT,1,55,0,0
6,embedding_mental_SR,Acceptable,NaN,other,PP,CORRECT_INC,CORRECT,2,186,0,0
6,embedding_mental_SR,Acceptable,NaN,other,PS,CORRECT,CORRECT,1,100,0,0
6,embedding_mental_SR,Acceptable,NaN,other,PS,CORRECT,CORRECT,1,134,0,0
6,embedding_mental_SR,Acceptable,NaN,other,PS,CORRECT,CORRECT,1,140,0,0
6,embedding_mental_SR,Acceptable,NaN,other,PS,CORRECT,CORRECT,2,170,0,0
6,embedding_mental_SR,Acceptable,NaN,other,PS,CORRECT,CORRECT,2,188,0,0
6,embedding_mental_SR,Acceptable,NaN,other,SP,CORRECT,CORRECT,1,131,0,0
6,embedding_mental_SR,Acceptable,NaN,other,SP,CORRECT,CORRECT,2,179,0,0
6,embedding_mental_SR,Acceptable,NaN,other,SP,CORRECT,CORRECT,2,267,0,0
6,embedding_mental_SR,Acceptable,NaN,other,SP,CORRECT,CORRECT,2,31,0,0
6,embedding_mental_SR,Acceptable,NaN,other,SP,CORRECT,CORRECT,2,74,0,0
6,embedding_mental_SR,Acceptable,NaN,other,SS,CORRECT,CORRECT,1,124,0,0
6,embedding_mental_SR,Acceptable,NaN,other,SS,CORRECT,CORRECT,2,8,0,0
6,embedding_mental_SR,Acceptable,NaN,other,SS,CORRECT_DDC,REJECTED,1,6,0,0
6,embedding_mental_SR,Acceptable,NaN,other,SS,CORRECT_DDC,REJECTED,2,14,0,0
6,embedding_mental_SR,Acceptable,NaN,other,SS,CORRECT_INC,CORRECT,2,97,0,0
6,embedding_mental_SR,Filler,N1,other,PP,CORRECT_INC,CORRECT,1,12,-1,0
6,embedding_mental_SR,Filler,N1,other,PS,CORRECT_INC,CORRECT,1,89,-1,0
6,embedding_mental_SR,Filler,N1,other,PS,CORRECT_INC,CORRECT,2,249,-1,0
6,embedding_mental_SR,Filler,N1,other,SP,CORRECT_INC,CORRECT,1,38,-1,0
6,embedding_mental_SR,Filler,N1,other,SS,CORRECT_INC,CORRECT,2,183,-1,0
6,embedding_mental_SR,Filler,V2,inner,PP,CORRECT_INC,CORRECT,2,121,-5,0
6,embedding_mental_SR,Filler,V2,inner,PP,CORRECT_INC,CORRECT,2,220,-5,0
6,embedding_mental_SR,Filler,V2,inner,PP,CORRECT_INC,CORRECT,2,61,-5,0
6,embedding_mental_SR,Filler,V2,inner,PS,CORRECT_INC,CORRECT,1,145,-5,0
6,embedding_mental_SR,Filler,V2,inner,PS,CORRECT_INC,CORRECT,1,156,-5,0
6,embedding_mental_SR,Filler,V2,inner,PS,CORRECT_INC,CORRECT,1,213,-5,0
6,embedding_mental_SR,Filler,V2,inner,PS,CORRECT_INC,CORRECT,1,53,-5,0
6,embedding_mental_SR,Filler,V2,inner,PS,CORRECT_INC,CORRECT,1,61,-5,0
6,embedding_mental_SR,Filler,V2,inner,PS,CORRECT_INC,CORRECT,2,11,-5,0
6,embedding_mental_SR,Filler,V2,inner,PS,CORRECT_INC,CORRECT,2,120,-5,0
6,embedding_mental_SR,Filler,V2,inner,PS,CORRECT_INC,CORRECT,2,173,-5,0
6,embedding_mental_SR,Filler,V2,inner,SP,CORRECT_INC,CORRECT,1,7,-5,0
6,embedding_mental_SR,Filler,V2,inner,SP,CORRECT_INC,CORRECT,2,142,-5,0
6,embedding_mental_SR,Filler,V2,inner,SP,CORRECT_INC,CORRECT,2,90,-5,0
6,embedding_mental_SR,Filler,V2,inner,SS,CORRECT_INC,CORRECT,1,64,-5,0
6,embedding_mental_SR,Violation,V2,inner,PP,CORRECT_INC,CORRECT,1,219,5,0
6,embedding_mental_SR,Violation,V2,inner,PP,CORRECT_INC,CORRECT,1,28,5,0
6,embedding_mental_SR,Violation,V2,inner,PP,CORRECT_INC,CORRECT,2,187,5,0
6,embedding_mental_SR,Violation,V2,inner,PP,CORRECT_INC,CORRECT,2,245,5,0
6,embedding_mental_SR,Violation,V2,inner,PP,CORRECT_INC,CORRECT,2,252,5,0
6,embedding_mental_SR,Violation,V2,inner,PS,CORRECT_INC,CORRECT,1,240,5,0
6,embedding_mental_SR,Violation,V2,inner,PS,CORRECT_INC,CORRECT,2,176,5,0
6,embedding_mental_SR,Violation,V2,inner,PS,CORRECT_INC,CORRECT,2,217,5,0
6,embedding_mental_SR,Violation,V2,inner,PS,CORRECT_INC,CORRECT,2,4,5,0
6,embedding_mental_SR,Violation,V2,inner,PS,CORRECT_INC,CORRECT,2,72,5,0
6,embedding_mental_SR,Violation,V2,inner,SP,CORRECT_INC,CORRECT,1,119,5,0
6,embedding_mental_SR,Violation,V2,inner,SP,CORRECT_INC,CORRECT,1,16,5,0
6,embedding_mental_SR,Violation,V2,inner,SP,CORRECT_INC,CORRECT,1,197,5,0
6,embedding_mental_SR,Violation,V2,inner,SP,CORRECT_INC,CORRECT,1,46,5,0
6,embedding_mental_SR,Violation,V2,inner,SP,CORRECT_INC,CORRECT,2,45,5,0
6,embedding_mental_SR,Violation,V2,inner,SS,CORRECT_INC,CORRECT,1,235,5,0
6,embedding_mental_SR,Violation,V2,inner,SS,CORRECT_INC,CORRECT,1,237,5,0
6,embedding_mental_SR,Violation,V2,inner,SS,CORRECT_INC,CORRECT,1,97,5,0
6,embedding_mental_SR,Violation,V2,inner,SS,CORRECT_INC,CORRECT,2,211,5,0
6,embedding_mental_SR,Violation,V2,inner,SS,CORRECT_INC,CORRECT,2,232,5,0
6,objrel,Acceptable,NaN,other,PP,CORRECT,CORRECT,1,112,0,0
6,objrel,Acceptable,NaN,other,PP,CORRECT,CORRECT,1,114,0,0
6,objrel,Acceptable,NaN,other,PP,CORRECT,CORRECT,1,218,0,0
6,objrel,Acceptable,NaN,other,PP,CORRECT,CORRECT,1,221,0,0
6,objrel,Acceptable,NaN,other,PP,CORRECT,CORRECT,2,149,0,0
6,objrel,Acceptable,NaN,other,PP,CORRECT,CORRECT,2,164,0,0
6,objrel,Acceptable,NaN,other,PP,CORRECT,CORRECT,2,191,0,0
6,objrel,Acceptable,NaN,other,PP,CORRECT,CORRECT,2,242,0,0
6,objrel,Acceptable,NaN,other,PP,CORRECT_DDC,REJECTED,1,41,0,0
6,objrel,Acceptable,NaN,other,PP,CORRECT_INC,CORRECT,2,58,0,0
6,objrel,Acceptable,NaN,other,PS,CORRECT,CORRECT,1,139,0,0
6,objrel,Acceptable,NaN,other,PS,CORRECT,CORRECT,1,29,0,0
6,objrel,Acceptable,NaN,other,PS,CORRECT,CORRECT,2,109,0,0
6,objrel,Acceptable,NaN,other,PS,CORRECT,CORRECT,2,119,0,0
6,objrel,Acceptable,NaN,other,PS,CORRECT,CORRECT,2,158,0,0
6,objrel,Acceptable,NaN,other,PS,CORRECT,CORRECT,2,202,0,0
6,objrel,Acceptable,NaN,other,PS,CORRECT,CORRECT,2,95,0,0
6,objrel,Acceptable,NaN,other,PS,CORRECT_INC,CORRECT,1,1,0,0
6,objrel,Acceptable,NaN,other,PS,CORRECT_INC,CORRECT,1,165,0,0
6,objrel,Acceptable,NaN,other,PS,CORRECT_INC,CORRECT,2,128,0,0
6,objrel,Acceptable,NaN,other,SP,CORRECT,CORRECT,1,123,0,0
6,objrel,Acceptable,NaN,other,SP,CORRECT,CORRECT,1,20,0,0
6,objrel,Acceptable,NaN,other,SP,CORRECT,CORRECT,1,225,0,0
6,objrel,Acceptable,NaN,other,SP,CORRECT,CORRECT,1,228,0,0
6,objrel,Acceptable,NaN,other,SP,CORRECT,CORRECT,1,254,0,0
6,objrel,Acceptable,NaN,other,SP,CORRECT,CORRECT,2,160,0,0
6,objrel,Acceptable,NaN,other,SP,CORRECT,CORRECT,2,203,0,0
6,objrel,Acceptable,NaN,other,SP,CORRECT_INC,CORRECT,2,117,0,0
6,objrel,Acceptable,NaN,other,SP,CORRECT_INC,CORRECT,2,244,0,0
6,objrel,Acceptable,NaN,other,SP,WRONG_INC,WRONG,2,104,0,0
6,objrel,Acceptable,NaN,other,SS,CORRECT,CORRECT,1,113,0,0
6,objrel,Acceptable,NaN,other,SS,CORRECT,CORRECT,1,159,0,0
6,objrel,Acceptable,NaN,other,SS,CORRECT,CORRECT,1,231,0,0
6,objrel,Acceptable,NaN,other,SS,CORRECT,CORRECT,1,85,0,0
6,objrel,Acceptable,NaN,other,SS,CORRECT,CORRECT,1,94,0,0
6,objrel,Acceptable,NaN,other,SS,CORRECT,CORRECT,2,103,0,0
6,objrel,Acceptable,NaN,other,SS,CORRECT,CORRECT,2,19,0,0
6,objrel,Acceptable,NaN,other,SS,CORRECT,CORRECT,2,80,0,0
6,objrel,Acceptable,NaN,other,SS,CORRECT_INC,CORRECT,2,269,0,0
6,objrel,Acceptable,NaN,other,SS,WRONG_INC,WRONG,2,70,0,0
6,objrel,Filler,N1,other,PP,CORRECT_INC,CORRECT,1,160,-1,0
6,objrel,Filler,N1,other,PS,CORRECT_INC,CORRECT,1,3,-1,0
6,objrel,Filler,N1,other,PS,CORRECT_INC,CORRECT,1,92,-1,0
6,objrel,Filler,N1,other,PS,CORRECT_INC,CORRECT,2,62,-1,0
6,objrel,Filler,N1,other,SP,CORRECT_INC,CORRECT,2,255,-1,0
6,objrel,Filler,N1,other,SP,CORRECT_INC,CORRECT,2,79,-1,0
6,objrel,Filler,N1,other,SS,CORRECT_INC,CORRECT,2,165,-1,0
6,objrel,Filler,N1,other,SS,CORRECT_INC,CORRECT,2,221,-1,0
6,objrel,Filler,N1,other,SS,CORRECT_INC,CORRECT,2,250,-1,0
6,objrel,Filler,N1,other,SS,CORRECT_INC,CORRECT,2,9,-1,0
6,objrel,Filler,V1,inner,PP,CORRECT_INC,CORRECT,2,20,-4,0
6,objrel,Filler,V1,inner,PP,CORRECT_INC,CORRECT,2,43,-4,0
6,objrel,Filler,V1,inner,PP,CORRECT_INC,CORRECT,2,67,-4,0
6,objrel,Filler,V1,inner,PS,CORRECT_INC,CORRECT,1,146,-4,0
6,objrel,Filler,V1,inner,PS,CORRECT_INC,CORRECT,2,178,-4,0
6,objrel,Filler,V1,inner,SP,CORRECT_INC,CORRECT,1,188,-4,0
6,objrel,Filler,V1,inner,SP,CORRECT_INC,CORRECT,1,236,-4,0
6,objrel,Filler,V1,inner,SP,CORRECT_INC,CORRECT,2,37,-4,0
6,objrel,Filler,V1,inner,SP,WRONG,WRONG,1,9,-4,0
6,objrel,Filler,V1,inner,SS,CORRECT_INC,CORRECT,1,127,-4,0
6,objrel,Filler,V1,inner,SS,CORRECT_INC,CORRECT,1,172,-4,0
6,objrel,Filler,V1,inner,SS,CORRECT_INC,CORRECT,1,195,-4,0
6,objrel,Filler,V1,inner,SS,CORRECT_INC,CORRECT,2,204,-4,0
6,objrel,Filler,V1,inner,SS,CORRECT_INC,CORRECT,2,258,-4,0
6,objrel,Filler,V1,inner,SS,CORRECT_INC,CORRECT,2,93,-4,0
6,objrel,Filler,V2,outer,PP,CORRECT_INC,CORRECT,1,50,-5,0
6,objrel,Filler,V2,outer,PP,CORRECT_INC,CORRECT,2,199,-5,0
6,objrel,Filler,V2,outer,PP,CORRECT_INC,CORRECT,2,88,-5,0
6,objrel,Filler,V2,outer,PS,CORRECT_INC,CORRECT,1,83,-5,0
6,objrel,Filler,V2,outer,PS,CORRECT_INC,CORRECT,2,100,-5,0
6,objrel,Filler,V2,outer,PS,CORRECT_INC,CORRECT,2,22,-5,0
6,objrel,Filler,V2,outer,PS,CORRECT_INC,CORRECT,2,270,-5,0
6,objrel,Filler,V2,outer,SP,CORRECT_INC,CORRECT,1,191,-5,0
6,objrel,Filler,V2,outer,SP,CORRECT_INC,CORRECT,1,201,-5,0
6,objrel,Filler,V2,outer,SP,CORRECT_INC,CORRECT,1,227,-5,0
6,objrel,Filler,V2,outer,SP,CORRECT_INC,CORRECT,1,93,-5,0
6,objrel,Filler,V2,outer,SP,CORRECT_INC,CORRECT,2,63,-5,0
6,objrel,Filler,V2,outer,SS,CORRECT_INC,CORRECT,1,164,-5,0
6,objrel,Filler,V2,outer,SS,CORRECT_INC,CORRECT,1,243,-5,0
6,objrel,Filler,V2,outer,SS,CORRECT_INC,CORRECT,2,233,-5,0
6,objrel,Violation,V1,inner,PP,CORRECT_INC,CORRECT,1,30,4,0
6,objrel,Violation,V1,inner,PP,CORRECT_INC,CORRECT,2,84,4,0
6,objrel,Violation,V1,inner,PP,CORRECT_INC,CORRECT,2,99,4,0
6,objrel,Violation,V1,inner,PP,WRONG,WRONG,1,258,4,0
6,objrel,Violation,V1,inner,PP,WRONG,WRONG,2,200,4,0
6,objrel,Violation,V1,inner,PS,CORRECT_INC,CORRECT,1,110,4,0
6,objrel,Violation,V1,inner,PS,CORRECT_INC,CORRECT,1,184,4,0
6,objrel,Violation,V1,inner,PS,CORRECT_INC,CORRECT,1,198,4,0
6,objrel,Violation,V1,inner,PS,CORRECT_INC,CORRECT,2,13,4,0
6,objrel,Violation,V1,inner,PS,CORRECT_INC,CORRECT,2,194,4,0
6,objrel,Violation,V1,inner,SP,CORRECT_INC,CORRECT,1,251,4,0
6,objrel,Violation,V1,inner,SP,CORRECT_INC,CORRECT,1,262,4,0
6,objrel,Violation,V1,inner,SP,CORRECT_INC,CORRECT,1,71,4,0
6,objrel,Violation,V1,inner,SP,CORRECT_INC,CORRECT,2,125,4,0
6,objrel,Violation,V1,inner,SP,CORRECT_INC,CORRECT,2,50,4,0
6,objrel,Violation,V1,inner,SS,CORRECT_INC,CORRECT,1,202,4,0
6,objrel,Violation,V1,inner,SS,CORRECT_INC,CORRECT,2,156,4,0
6,objrel,Violation,V1,inner,SS,CORRECT_INC,CORRECT,2,190,4,0
6,objrel,Violation,V1,inner,SS,CORRECT_INC,CORRECT,2,96,4,0
6,objrel,Violation,V1,inner,SS,WRONG,WRONG,2,91,4,0
6,objrel,Violation,V2,outer,PP,CORRECT_INC,CORRECT,1,10,5,0
6,objrel,Violation,V2,outer,PP,CORRECT_INC,CORRECT,1,132,5,0
6,objrel,Violation,V2,outer,PP,CORRECT_INC,CORRECT,1,157,5,0
6,objrel,Violation,V2,outer,PP,CORRECT_INC,CORRECT,1,25,5,0
6,objrel,Violation,V2,outer,PP,CORRECT_INC,CORRECT,2,182,5,0
6,objrel,Violation,V2,outer,PS,CORRECT_INC,CORRECT,1,108,5,0
6,objrel,Violation,V2,outer,PS,CORRECT_INC,CORRECT,1,128,5,0
6,objrel,Violation,V2,outer,PS,CORRECT_INC,CORRECT,1,32,5,0
6,objrel,Violation,V2,outer,PS,CORRECT_INC,CORRECT,1,56,5,0
6,objrel,Violation,V2,outer,PS,CORRECT_INC,CORRECT,1,70,5,0
6,objrel,Violation,V2,outer,SP,CORRECT_INC,CORRECT,1,13,5,0
6,objrel,Violation,V2,outer,SP,CORRECT_INC,CORRECT,1,2,5,0
6,objrel,Violation,V2,outer,SP,CORRECT_INC,CORRECT,2,105,5,0
6,objrel,Violation,V2,outer,SP,CORRECT_INC,CORRECT,2,116,5,0
6,objrel,Violation,V2,outer,SP,WRONG_INC,WRONG,1,59,5,1.8856
6,objrel,Violation,V2,outer,SS,CORRECT,CORRECT,2,59,5,0.68372
6,objrel,Violation,V2,outer,SS,CORRECT_INC,CORRECT,2,138,5,0
6,objrel,Violation,V2,outer,SS,CORRECT_INC,CORRECT,2,163,5,0
6,objrel,Violation,V2,outer,SS,CORRECT_INC,CORRECT,2,17,5,0
6,objrel,Violation,V2,outer,SS,CORRECT_INC,CORRECT,2,175,5,0
6,objrel_nounpp,Acceptable,NaN,other,PPP,CORRECT,CORRECT,1,135,0,0
6,objrel_nounpp,Acceptable,NaN,other,PPP,CORRECT,CORRECT,1,239,0,0
6,objrel_nounpp,Acceptable,NaN,other,PPP,CORRECT,CORRECT,2,134,0,0
6,objrel_nounpp,Acceptable,NaN,other,PPP,CORRECT,CORRECT,2,42,0,0
6,objrel_nounpp,Acceptable,NaN,other,PPP,CORRECT_INC,CORRECT,1,43,0,0
6,objrel_nounpp,Acceptable,NaN,other,PPP,CORRECT_INC,CORRECT,2,145,0,0
6,objrel_nounpp,Acceptable,NaN,other,PPP,CORRECT_INC,CORRECT,2,55,0,0
6,objrel_nounpp,Acceptable,NaN,other,PPP,CORRECT_INC,CORRECT,2,89,0,0
6,objrel_nounpp,Acceptable,NaN,other,PPP,WRONG_INC,WRONG,1,66,0,0
6,objrel_nounpp,Acceptable,NaN,other,PPP,WRONG_INC,WRONG,2,266,0,0
6,objrel_nounpp,Acceptable,NaN,other,PPS,CORRECT,CORRECT,1,137,0,0
6,objrel_nounpp,Acceptable,NaN,other,PPS,CORRECT,CORRECT,1,166,0,0
6,objrel_nounpp,Acceptable,NaN,other,PPS,CORRECT,CORRECT,1,193,0,0
6,objrel_nounpp,Acceptable,NaN,other,PPS,CORRECT,CORRECT,1,57,0,0
6,objrel_nounpp,Acceptable,NaN,other,PPS,CORRECT,CORRECT,2,222,0,0
6,objrel_nounpp,Acceptable,NaN,other,PPS,CORRECT,CORRECT,2,236,0,0
6,objrel_nounpp,Acceptable,NaN,other,PPS,CORRECT,CORRECT,2,261,0,0
6,objrel_nounpp,Acceptable,NaN,other,PPS,CORRECT_INC,CORRECT,2,151,0,0
6,objrel_nounpp,Acceptable,NaN,other,PPS,CORRECT_INC,CORRECT,2,181,0,0
6,objrel_nounpp,Acceptable,NaN,other,PPS,WRONG_INC,WRONG,1,8,0,0
6,objrel_nounpp,Acceptable,NaN,other,PSP,CORRECT,CORRECT,1,104,0,0
6,objrel_nounpp,Acceptable,NaN,other,PSP,CORRECT,CORRECT,1,115,0,0
6,objrel_nounpp,Acceptable,NaN,other,PSP,CORRECT,CORRECT,1,5,0,0
6,objrel_nounpp,Acceptable,NaN,other,PSP,CORRECT,CORRECT,2,75,0,0
6,objrel_nounpp,Acceptable,NaN,other,PSP,CORRECT_DDC,REJECTED,2,32,0,0
6,objrel_nounpp,Acceptable,NaN,other,PSP,CORRECT_INC,CORRECT,2,129,0,0
6,objrel_nounpp,Acceptable,NaN,other,PSP,CORRECT_INC,CORRECT,2,144,0,0
6,objrel_nounpp,Acceptable,NaN,other,PSP,CORRECT_INC,CORRECT,2,201,0,0
6,objrel_nounpp,Acceptable,NaN,other,PSP,WRONG_INC,WRONG,1,152,0,0
6,objrel_nounpp,Acceptable,NaN,other,PSP,WRONG_INC,WRONG,2,64,0,0
6,objrel_nounpp,Acceptable,NaN,other,PSS,CORRECT,CORRECT,1,180,0,0
6,objrel_nounpp,Acceptable,NaN,other,PSS,CORRECT,CORRECT,1,245,0,0
6,objrel_nounpp,Acceptable,NaN,other,PSS,CORRECT,CORRECT,1,270,0,0
6,objrel_nounpp,Acceptable,NaN,other,PSS,CORRECT,CORRECT,1,58,0,0
6,objrel_nounpp,Acceptable,NaN,other,PSS,CORRECT,CORRECT,1,73,0,0
6,objrel_nounpp,Acceptable,NaN,other,PSS,CORRECT_DDC,REJECTED,1,67,0,0
6,objrel_nounpp,Acceptable,NaN,other,PSS,CORRECT_INC,CORRECT,1,247,0,0
6,objrel_nounpp,Acceptable,NaN,other,PSS,CORRECT_INC,CORRECT,2,94,0,0
6,objrel_nounpp,Acceptable,NaN,other,PSS,WRONG_INC,WRONG,1,263,0,0
6,objrel_nounpp,Acceptable,NaN,other,PSS,WRONG_INC,WRONG,2,53,0,0
6,objrel_nounpp,Acceptable,NaN,other,SPP,CORRECT,CORRECT,1,161,0,0
6,objrel_nounpp,Acceptable,NaN,other,SPP,CORRECT,CORRECT,1,174,0,0
6,objrel_nounpp,Acceptable,NaN,other,SPP,CORRECT,CORRECT,1,241,0,0
6,objrel_nounpp,Acceptable,NaN,other,SPP,CORRECT,CORRECT,1,252,0,0
6,objrel_nounpp,Acceptable,NaN,other,SPP,CORRECT,CORRECT,1,42,0,0
6,objrel_nounpp,Acceptable,NaN,other,SPP,CORRECT,CORRECT,1,76,0,0
6,objrel_nounpp,Acceptable,NaN,other,SPP,CORRECT,CORRECT,2,184,0,0
6,objrel_nounpp,Acceptable,NaN,other,SPP,CORRECT,CORRECT,2,224,0,0
6,objrel_nounpp,Acceptable,NaN,other,SPP,CORRECT,CORRECT,2,251,0,0
6,objrel_nounpp,Acceptable,NaN,other,SPP,WRONG_INC,WRONG,1,207,0,0
6,objrel_nounpp,Acceptable,NaN,other,SPS,CORRECT,CORRECT,1,21,0,0
6,objrel_nounpp,Acceptable,NaN,other,SPS,CORRECT,CORRECT,1,36,0,0
6,objrel_nounpp,Acceptable,NaN,other,SPS,CORRECT,CORRECT,2,34,0,0
6,objrel_nounpp,Acceptable,NaN,other,SPS,CORRECT,CORRECT,2,69,0,0
6,objrel_nounpp,Acceptable,NaN,other,SPS,CORRECT,CORRECT,2,83,0,0
6,objrel_nounpp,Acceptable,NaN,other,SPS,CORRECT_DDC,REJECTED,1,72,0,0
6,objrel_nounpp,Acceptable,NaN,other,SPS,CORRECT_INC,CORRECT,2,112,0,0
6,objrel_nounpp,Acceptable,NaN,other,SPS,CORRECT_INC,CORRECT,2,209,0,0
6,objrel_nounpp,Acceptable,NaN,other,SPS,WRONG_INC,WRONG,1,60,0,0
6,objrel_nounpp,Acceptable,NaN,other,SPS,WRONG_INC,WRONG,2,265,0,0
6,objrel_nounpp,Acceptable,NaN,other,SSP,CORRECT,CORRECT,1,111,0,0
6,objrel_nounpp,Acceptable,NaN,other,SSP,CORRECT,CORRECT,1,15,0,0
6,objrel_nounpp,Acceptable,NaN,other,SSP,CORRECT,CORRECT,1,173,0,0
6,objrel_nounpp,Acceptable,NaN,other,SSP,CORRECT,CORRECT,1,90,0,0
6,objrel_nounpp,Acceptable,NaN,other,SSP,CORRECT,CORRECT,2,110,0,0
6,objrel_nounpp,Acceptable,NaN,other,SSP,CORRECT,CORRECT,2,133,0,0
6,objrel_nounpp,Acceptable,NaN,other,SSP,CORRECT_DDC,REJECTED,1,179,0,0
6,objrel_nounpp,Acceptable,NaN,other,SSP,CORRECT_INC,CORRECT,1,47,0,0
6,objrel_nounpp,Acceptable,NaN,other,SSP,CORRECT_INC,CORRECT,2,47,0,0
6,objrel_nounpp,Acceptable,NaN,other,SSP,CORRECT_INC,CORRECT,2,98,0,0
6,objrel_nounpp,Acceptable,NaN,other,SSS,CORRECT,CORRECT,1,170,0,0
6,objrel_nounpp,Acceptable,NaN,other,SSS,CORRECT,CORRECT,1,256,0,0
6,objrel_nounpp,Acceptable,NaN,other,SSS,CORRECT,CORRECT,2,189,0,0
6,objrel_nounpp,Acceptable,NaN,other,SSS,CORRECT,CORRECT,2,206,0,0
6,objrel_nounpp,Acceptable,NaN,other,SSS,CORRECT,CORRECT,2,238,0,0
6,objrel_nounpp,Acceptable,NaN,other,SSS,CORRECT,CORRECT,2,262,0,0
6,objrel_nounpp,Acceptable,NaN,other,SSS,CORRECT,CORRECT,2,57,0,0
6,objrel_nounpp,Acceptable,NaN,other,SSS,CORRECT_INC,CORRECT,2,210,0,0
6,objrel_nounpp,Acceptable,NaN,other,SSS,CORRECT_INC,CORRECT,2,66,0,0
6,objrel_nounpp,Acceptable,NaN,other,SSS,WRONG_INC,WRONG,1,205,0,0
6,objrel_nounpp,Filler,N1,other,PPS,CORRECT_INC,CORRECT,1,158,-1,0
6,objrel_nounpp,Filler,N1,other,PPS,CORRECT_INC,CORRECT,2,111,-1,0
6,objrel_nounpp,Filler,N1,other,PPS,CORRECT_INC,CORRECT,2,16,-1,0
6,objrel_nounpp,Filler,N1,other,PPS,CORRECT_INC,CORRECT,2,260,-1,0
6,objrel_nounpp,Filler,N1,other,PSS,CORRECT_INC,CORRECT,2,49,-1,0
6,objrel_nounpp,Filler,N1,other,PSS,WRONG,WRONG,1,153,-1,0
6,objrel_nounpp,Filler,N1,other,SPP,CORRECT_INC,CORRECT,2,268,-1,0
6,objrel_nounpp,Filler,N1,other,SPS,CORRECT_INC,CORRECT,1,87,-1,0
6,objrel_nounpp,Filler,N1,other,SPS,CORRECT_INC,CORRECT,2,198,-1,0
6,objrel_nounpp,Filler,N1,other,SSS,CORRECT_INC,CORRECT,1,101,-1,0
6,objrel_nounpp,Filler,N2,other,PPP,CORRECT_INC,CORRECT,1,150,-3,0
6,objrel_nounpp,Filler,N2,other,PPS,CORRECT_INC,CORRECT,2,237,-3,0
6,objrel_nounpp,Filler,N2,other,PSP,CORRECT_INC,CORRECT,1,88,-3,0
6,objrel_nounpp,Filler,N2,other,PSP,CORRECT_INC,CORRECT,2,30,-3,0
6,objrel_nounpp,Filler,N2,other,PSP,CORRECT_INC,CORRECT,2,48,-3,0
6,objrel_nounpp,Filler,N2,other,SPS,CORRECT_INC,CORRECT,2,139,-3,0
6,objrel_nounpp,Filler,N2,other,SPS,CORRECT_INC,CORRECT,2,172,-3,0
6,objrel_nounpp,Filler,N2,other,SPS,CORRECT_INC,CORRECT,2,213,-3,0
6,objrel_nounpp,Filler,N2,other,SSP,CORRECT_INC,CORRECT,1,81,-3,0
6,objrel_nounpp,Filler,N2,other,SSS,CORRECT_INC,CORRECT,2,126,-3,0
6,objrel_nounpp,Filler,V1,inner,PPP,CORRECT_INC,CORRECT,1,183,-7,0
6,objrel_nounpp,Filler,V1,inner,PPP,CORRECT_INC,CORRECT,1,82,-7,0
6,objrel_nounpp,Filler,V1,inner,PPP,CORRECT_INC,CORRECT,2,131,-7,0
6,objrel_nounpp,Filler,V1,inner,PPP,CORRECT_INC,CORRECT,2,155,-7,0
6,objrel_nounpp,Filler,V1,inner,PPP,CORRECT_INC,CORRECT,2,205,-7,0
6,objrel_nounpp,Filler,V1,inner,PPS,CORRECT_INC,CORRECT,2,219,-7,0
6,objrel_nounpp,Filler,V1,inner,PPS,CORRECT_INC,CORRECT,2,40,-7,0
6,objrel_nounpp,Filler,V1,inner,PSP,CORRECT_INC,CORRECT,1,23,-7,0
6,objrel_nounpp,Filler,V1,inner,PSP,CORRECT_INC,CORRECT,2,240,-7,0
6,objrel_nounpp,Filler,V1,inner,PSS,CORRECT_INC,CORRECT,1,122,-7,0
6,objrel_nounpp,Filler,V1,inner,PSS,CORRECT_INC,CORRECT,1,133,-7,0
6,objrel_nounpp,Filler,V1,inner,PSS,CORRECT_INC,CORRECT,1,33,-7,0
6,objrel_nounpp,Filler,V1,inner,PSS,CORRECT_INC,CORRECT,1,86,-7,0
6,objrel_nounpp,Filler,V1,inner,PSS,CORRECT_INC,CORRECT,2,153,-7,0
6,objrel_nounpp,Filler,V1,inner,PSS,CORRECT_INC,CORRECT,2,253,-7,0
6,objrel_nounpp,Filler,V1,inner,PSS,CORRECT_INC,CORRECT,2,256,-7,0
6,objrel_nounpp,Filler,V1,inner,SPP,CORRECT_INC,CORRECT,1,117,-7,0
6,objrel_nounpp,Filler,V1,inner,SPP,CORRECT_INC,CORRECT,1,249,-7,0
6,objrel_nounpp,Filler,V1,inner,SPP,CORRECT_INC,CORRECT,1,51,-7,0
6,objrel_nounpp,Filler,V1,inner,SPP,CORRECT_INC,CORRECT,2,227,-7,0
6,objrel_nounpp,Filler,V1,inner,SPP,CORRECT_INC,CORRECT,2,7,-7,0
6,objrel_nounpp,Filler,V1,inner,SPS,CORRECT_INC,CORRECT,2,127,-7,0
6,objrel_nounpp,Filler,V1,inner,SPS,CORRECT_INC,CORRECT,2,136,-7,0
6,objrel_nounpp,Filler,V1,inner,SPS,CORRECT_INC,CORRECT,2,148,-7,0
6,objrel_nounpp,Filler,V1,inner,SPS,CORRECT_INC,CORRECT,2,218,-7,0
6,objrel_nounpp,Filler,V1,inner,SSP,CORRECT_INC,CORRECT,2,137,-7,0
6,objrel_nounpp,Filler,V1,inner,SSP,CORRECT_INC,CORRECT,2,235,-7,0
6,objrel_nounpp,Filler,V1,inner,SSP,CORRECT_INC,CORRECT,2,248,-7,0
6,objrel_nounpp,Filler,V1,inner,SSP,CORRECT_INC,CORRECT,2,78,-7,0
6,objrel_nounpp,Filler,V1,inner,SSS,CORRECT_INC,CORRECT,2,146,-7,0
6,objrel_nounpp,Filler,V2,outer,PPP,CORRECT_INC,CORRECT,1,141,-8,0
6,objrel_nounpp,Filler,V2,outer,PPP,CORRECT_INC,CORRECT,1,185,-8,0
6,objrel_nounpp,Filler,V2,outer,PPP,CORRECT_INC,CORRECT,1,78,-8,0
6,objrel_nounpp,Filler,V2,outer,PPP,CORRECT_INC,CORRECT,2,195,-8,0
6,objrel_nounpp,Filler,V2,outer,PPS,CORRECT_INC,CORRECT,1,40,-8,0
6,objrel_nounpp,Filler,V2,outer,PPS,CORRECT_INC,CORRECT,2,228,-8,0
6,objrel_nounpp,Filler,V2,outer,PPS,CORRECT_INC,CORRECT,2,52,-8,0
6,objrel_nounpp,Filler,V2,outer,PSP,CORRECT_INC,CORRECT,2,44,-8,0
6,objrel_nounpp,Filler,V2,outer,PSS,CORRECT_INC,CORRECT,2,113,-8,0
6,objrel_nounpp,Filler,V2,outer,PSS,CORRECT_INC,CORRECT,2,21,-8,0
6,objrel_nounpp,Filler,V2,outer,PSS,CORRECT_INC,CORRECT,2,216,-8,0
6,objrel_nounpp,Filler,V2,outer,PSS,CORRECT_INC,CORRECT,2,23,-8,0
6,objrel_nounpp,Filler,V2,outer,SPP,CORRECT_INC,CORRECT,1,26,-8,0
6,objrel_nounpp,Filler,V2,outer,SPP,CORRECT_INC,CORRECT,1,49,-8,0
6,objrel_nounpp,Filler,V2,outer,SPP,CORRECT_INC,CORRECT,2,102,-8,0
6,objrel_nounpp,Filler,V2,outer,SPP,CORRECT_INC,CORRECT,2,161,-8,0
6,objrel_nounpp,Filler,V2,outer,SPP,CORRECT_INC,CORRECT,2,197,-8,0
6,objrel_nounpp,Filler,V2,outer,SPS,CORRECT_INC,CORRECT,1,261,-8,0
6,objrel_nounpp,Filler,V2,outer,SPS,CORRECT_INC,CORRECT,1,39,-8,0
6,objrel_nounpp,Filler,V2,outer,SPS,CORRECT_INC,CORRECT,1,75,-8,0
6,objrel_nounpp,Filler,V2,outer,SPS,CORRECT_INC,CORRECT,2,207,-8,0
6,objrel_nounpp,Filler,V2,outer,SPS,CORRECT_INC,CORRECT,2,36,-8,0
6,objrel_nounpp,Filler,V2,outer,SSP,CORRECT_INC,CORRECT,1,18,-8,0
6,objrel_nounpp,Filler,V2,outer,SSP,CORRECT_INC,CORRECT,1,95,-8,0
6,objrel_nounpp,Filler,V2,outer,SSP,CORRECT_INC,CORRECT,2,226,-8,0
6,objrel_nounpp,Filler,V2,outer,SSS,CORRECT_INC,CORRECT,1,120,-8,0
6,objrel_nounpp,Filler,V2,outer,SSS,CORRECT_INC,CORRECT,1,178,-8,0
6,objrel_nounpp,Filler,V2,outer,SSS,CORRECT_INC,CORRECT,1,44,-8,0
6,objrel_nounpp,Filler,V2,outer,SSS,CORRECT_INC,CORRECT,2,180,-8,0
6,objrel_nounpp,Filler,V2,outer,SSS,CORRECT_INC,CORRECT,2,215,-8,0
6,objrel_nounpp,Violation,V1,inner,PPP,CORRECT_INC,CORRECT,1,11,7,0
6,objrel_nounpp,Violation,V1,inner,PPP,CORRECT_INC,CORRECT,1,233,7,0
6,objrel_nounpp,Violation,V1,inner,PPP,CORRECT_INC,CORRECT,1,24,7,0
6,objrel_nounpp,Violation,V1,inner,PPP,CORRECT_INC,CORRECT,1,35,7,0
6,objrel_nounpp,Violation,V1,inner,PPP,CORRECT_INC,CORRECT,2,177,7,0
6,objrel_nounpp,Violation,V1,inner,PPS,CORRECT_INC,CORRECT,1,203,7,0
6,objrel_nounpp,Violation,V1,inner,PPS,CORRECT_INC,CORRECT,1,230,7,0
6,objrel_nounpp,Violation,V1,inner,PPS,CORRECT_INC,CORRECT,2,118,7,0
6,objrel_nounpp,Violation,V1,inner,PPS,CORRECT_INC,CORRECT,2,24,7,0
6,objrel_nounpp,Violation,V1,inner,PPS,WRONG,WRONG,1,209,7,0
6,objrel_nounpp,Violation,V1,inner,PSP,CORRECT_INC,CORRECT,1,144,7,0
6,objrel_nounpp,Violation,V1,inner,PSP,CORRECT_INC,CORRECT,1,91,7,0
6,objrel_nounpp,Violation,V1,inner,PSP,WRONG,WRONG,1,163,7,0
6,objrel_nounpp,Violation,V1,inner,PSP,WRONG,WRONG,1,210,7,0
6,objrel_nounpp,Violation,V1,inner,PSP,WRONG,WRONG,2,130,7,0
6,objrel_nounpp,Violation,V1,inner,PSS,CORRECT_INC,CORRECT,1,109,7,0
6,objrel_nounpp,Violation,V1,inner,PSS,CORRECT_INC,CORRECT,1,151,7,0
6,objrel_nounpp,Violation,V1,inner,PSS,CORRECT_INC,CORRECT,1,246,7,0
6,objrel_nounpp,Violation,V1,inner,PSS,WRONG,WRONG,1,77,7,0
6,objrel_nounpp,Violation,V1,inner,PSS,WRONG,WRONG,2,259,7,0
6,objrel_nounpp,Violation,V1,inner,SPP,CORRECT_INC,CORRECT,1,103,7,0
6,objrel_nounpp,Violation,V1,inner,SPP,CORRECT_INC,CORRECT,1,196,7,0
6,objrel_nounpp,Violation,V1,inner,SPP,CORRECT_INC,CORRECT,1,259,7,0
6,objrel_nounpp,Violation,V1,inner,SPP,CORRECT_INC,CORRECT,2,12,7,0
6,objrel_nounpp,Violation,V1,inner,SPP,WRONG_DDC,REJECTED,2,257,7,0
6,objrel_nounpp,Violation,V1,inner,SPS,CORRECT_INC,CORRECT,1,217,7,0
6,objrel_nounpp,Violation,V1,inner,SPS,CORRECT_INC,CORRECT,2,123,7,0
6,objrel_nounpp,Violation,V1,inner,SPS,CORRECT_INC,CORRECT,2,185,7,0
6,objrel_nounpp,Violation,V1,inner,SPS,CORRECT_INC,CORRECT,2,230,7,0
6,objrel_nounpp,Violation,V1,inner,SPS,CORRECT_INC,CORRECT,2,82,7,0
6,objrel_nounpp,Violation,V1,inner,SSP,CORRECT_INC,CORRECT,1,168,7,0
6,objrel_nounpp,Violation,V1,inner,SSP,CORRECT_INC,CORRECT,1,200,7,0
6,objrel_nounpp,Violation,V1,inner,SSP,CORRECT_INC,CORRECT,1,62,7,0
6,objrel_nounpp,Violation,V1,inner,SSP,CORRECT_INC,CORRECT,2,1,7,0
6,objrel_nounpp,Violation,V1,inner,SSP,CORRECT_INC,CORRECT,2,108,7,0
6,objrel_nounpp,Violation,V1,inner,SSS,CORRECT_INC,CORRECT,1,171,7,0
6,objrel_nounpp,Violation,V1,inner,SSS,CORRECT_INC,CORRECT,1,45,7,0
6,objrel_nounpp,Violation,V1,inner,SSS,CORRECT_INC,CORRECT,2,132,7,0
6,objrel_nounpp,Violation,V1,inner,SSS,CORRECT_INC,CORRECT,2,196,7,0
6,objrel_nounpp,Violation,V1,inner,SSS,CORRECT_INC,CORRECT,2,35,7,0
6,objrel_nounpp,Violation,V2,outer,PPP,CORRECT_INC,CORRECT,1,129,8,0
6,objrel_nounpp,Violation,V2,outer,PPP,CORRECT_INC,CORRECT,1,189,8,0
6,objrel_nounpp,Violation,V2,outer,PPP,CORRECT_INC,CORRECT,1,74,8,0
6,objrel_nounpp,Violation,V2,outer,PPP,CORRECT_INC,CORRECT,2,135,8,0
6,objrel_nounpp,Violation,V2,outer,PPP,CORRECT_INC,CORRECT,2,18,8,0
6,objrel_nounpp,Violation,V2,outer,PPS,CORRECT_INC,CORRECT,1,136,8,0
6,objrel_nounpp,Violation,V2,outer,PPS,CORRECT_INC,CORRECT,2,140,8,0
6,objrel_nounpp,Violation,V2,outer,PPS,WRONG,WRONG,1,169,8,0
6,objrel_nounpp,Violation,V2,outer,PPS,WRONG,WRONG,2,208,8,0
6,objrel_nounpp,Violation,V2,outer,PPS,WRONG,WRONG,2,65,8,0
6,objrel_nounpp,Violation,V2,outer,PSP,CORRECT_INC,CORRECT,1,186,8,0
6,objrel_nounpp,Violation,V2,outer,PSP,CORRECT_INC,CORRECT,1,222,8,0
6,objrel_nounpp,Violation,V2,outer,PSP,CORRECT_INC,CORRECT,1,80,8,0
6,objrel_nounpp,Violation,V2,outer,PSP,CORRECT_INC,CORRECT,2,168,8,0
6,objrel_nounpp,Violation,V2,outer,PSP,CORRECT_INC,CORRECT,2,87,8,0
6,objrel_nounpp,Violation,V2,outer,PSS,CORRECT_INC,CORRECT,1,121,8,0
6,objrel_nounpp,Violation,V2,outer,PSS,CORRECT_INC,CORRECT,1,204,8,0
6,objrel_nounpp,Violation,V2,outer,PSS,CORRECT_INC,CORRECT,1,216,8,0
6,objrel_nounpp,Violation,V2,outer,PSS,CORRECT_INC,CORRECT,2,166,8,0
6,objrel_nounpp,Violation,V2,outer,PSS,CORRECT_INC,CORRECT,2,214,8,0
6,objrel_nounpp,Violation,V2,outer,SPP,CORRECT_INC,CORRECT,1,102,8,0
6,objrel_nounpp,Violation,V2,outer,SPP,CORRECT_INC,CORRECT,1,238,8,0
6,objrel_nounpp,Violation,V2,outer,SPP,CORRECT_INC,CORRECT,1,260,8,0
6,objrel_nounpp,Violation,V2,outer,SPP,CORRECT_INC,CORRECT,2,171,8,0
6,objrel_nounpp,Violation,V2,outer,SPP,CORRECT_INC,CORRECT,2,263,8,0
6,objrel_nounpp,Violation,V2,outer,SPS,CORRECT_INC,CORRECT,1,208,8,0
6,objrel_nounpp,Violation,V2,outer,SPS,CORRECT_INC,CORRECT,1,69,8,0
6,objrel_nounpp,Violation,V2,outer,SPS,CORRECT_INC,CORRECT,2,115,8,0
6,objrel_nounpp,Violation,V2,outer,SPS,WRONG,WRONG,1,63,8,0
6,objrel_nounpp,Violation,V2,outer,SPS,WRONG,WRONG,2,73,8,0
6,objrel_nounpp,Violation,V2,outer,SSP,CORRECT_INC,CORRECT,1,142,8,0
6,objrel_nounpp,Violation,V2,outer,SSP,CORRECT_INC,CORRECT,1,182,8,0
6,objrel_nounpp,Violation,V2,outer,SSP,CORRECT_INC,CORRECT,2,15,8,0
6,objrel_nounpp,Violation,V2,outer,SSP,CORRECT_INC,CORRECT,2,264,8,0
6,objrel_nounpp,Violation,V2,outer,SSP,CORRECT_INC,CORRECT,2,68,8,0
6,objrel_nounpp,Violation,V2,outer,SSS,CORRECT_INC,CORRECT,1,130,8,0
6,objrel_nounpp,Violation,V2,outer,SSS,CORRECT_INC,CORRECT,1,177,8,0
6,objrel_nounpp,Violation,V2,outer,SSS,CORRECT_INC,CORRECT,1,54,8,0
6,objrel_nounpp,Violation,V2,outer,SSS,CORRECT_INC,CORRECT,2,10,8,0
6,objrel_nounpp,Violation,V2,outer,SSS,CORRECT_INC,CORRECT,2,6,8,0
7,embedding_mental_LR,Acceptable,NaN,other,PPP,CORRECT_INC,CORRECT,1,105,0,0
7,embedding_mental_LR,Acceptable,NaN,other,PPP,CORRECT_INC,CORRECT,1,106,0,0
7,embedding_mental_LR,Acceptable,NaN,other,PPP,CORRECT_INC,CORRECT,1,107,0,0
7,embedding_mental_LR,Acceptable,NaN,other,PPP,CORRECT_INC,CORRECT,1,48,0,0
7,embedding_mental_LR,Acceptable,NaN,other,PPP,CORRECT_INC,CORRECT,2,77,0,0
7,embedding_mental_LR,Acceptable,NaN,other,PPS,CORRECT,CORRECT,1,206,0,0
7,embedding_mental_LR,Acceptable,NaN,other,PPS,CORRECT_INC,CORRECT,1,220,0,0
7,embedding_mental_LR,Acceptable,NaN,other,PPS,CORRECT_INC,CORRECT,2,159,0,0
7,embedding_mental_LR,Acceptable,NaN,other,PPS,CORRECT_INC,CORRECT,2,167,0,0
7,embedding_mental_LR,Acceptable,NaN,other,PPS,CORRECT_INC,CORRECT,2,28,0,0
7,embedding_mental_LR,Acceptable,NaN,other,PSP,CORRECT_INC,CORRECT,1,232,0,0
7,embedding_mental_LR,Acceptable,NaN,other,PSP,CORRECT_INC,CORRECT,2,162,0,0
7,embedding_mental_LR,Acceptable,NaN,other,PSP,CORRECT_INC,CORRECT,2,193,0,0
7,embedding_mental_LR,Acceptable,NaN,other,PSP,CORRECT_INC,CORRECT,2,229,0,0
7,embedding_mental_LR,Acceptable,NaN,other,PSP,WRONG_INC,WRONG,1,68,0,0
7,embedding_mental_LR,Acceptable,NaN,other,PSS,CORRECT_INC,CORRECT,1,214,0,0
7,embedding_mental_LR,Acceptable,NaN,other,PSS,CORRECT_INC,CORRECT,1,215,0,0
7,embedding_mental_LR,Acceptable,NaN,other,PSS,CORRECT_INC,CORRECT,1,79,0,0
7,embedding_mental_LR,Acceptable,NaN,other,PSS,CORRECT_INC,CORRECT,2,234,0,0
7,embedding_mental_LR,Acceptable,NaN,other,PSS,CORRECT_INC,CORRECT,2,56,0,0
7,embedding_mental_LR,Acceptable,NaN,other,SPP,CORRECT,CORRECT,1,257,0,0
7,embedding_mental_LR,Acceptable,NaN,other,SPP,CORRECT_INC,CORRECT,1,147,0,0
7,embedding_mental_LR,Acceptable,NaN,other,SPP,CORRECT_INC,CORRECT,1,242,0,0
7,embedding_mental_LR,Acceptable,NaN,other,SPP,CORRECT_INC,CORRECT,1,37,0,0
7,embedding_mental_LR,Acceptable,NaN,other,SPP,CORRECT_INC,CORRECT,2,243,0,0
7,embedding_mental_LR,Acceptable,NaN,other,SPS,CORRECT_INC,CORRECT,1,199,0,0
7,embedding_mental_LR,Acceptable,NaN,other,SPS,CORRECT_INC,CORRECT,1,223,0,0
7,embedding_mental_LR,Acceptable,NaN,other,SPS,CORRECT_INC,CORRECT,1,244,0,0
7,embedding_mental_LR,Acceptable,NaN,other,SPS,CORRECT_INC,CORRECT,2,154,0,0
7,embedding_mental_LR,Acceptable,NaN,other,SPS,CORRECT_INC,CORRECT,2,192,0,0
7,embedding_mental_LR,Acceptable,NaN,other,SSP,CORRECT,CORRECT,1,267,0,0
7,embedding_mental_LR,Acceptable,NaN,other,SSP,CORRECT_INC,CORRECT,1,234,0,0
7,embedding_mental_LR,Acceptable,NaN,other,SSP,CORRECT_INC,CORRECT,1,248,0,0
7,embedding_mental_LR,Acceptable,NaN,other,SSP,CORRECT_INC,CORRECT,1,269,0,0
7,embedding_mental_LR,Acceptable,NaN,other,SSP,CORRECT_INC,CORRECT,2,25,0,0
7,embedding_mental_LR,Acceptable,NaN,other,SSS,CORRECT_INC,CORRECT,1,125,0,0
7,embedding_mental_LR,Acceptable,NaN,other,SSS,CORRECT_INC,CORRECT,1,175,0,0
7,embedding_mental_LR,Acceptable,NaN,other,SSS,CORRECT_INC,CORRECT,2,114,0,0
7,embedding_mental_LR,Acceptable,NaN,other,SSS,CORRECT_INC,CORRECT,2,152,0,0
7,embedding_mental_LR,Acceptable,NaN,other,SSS,CORRECT_INC,CORRECT,2,26,0,0
7,embedding_mental_LR,Filler,N2,other,PPS,CORRECT,CORRECT,1,19,-4,3.3433
7,embedding_mental_LR,Filler,N2,other,PPS,CORRECT_INC,CORRECT,2,239,-4,0
7,embedding_mental_LR,Filler,N2,other,PPS,CORRECT_INC,CORRECT,2,51,-4,0
7,embedding_mental_LR,Filler,N2,other,SPP,CORRECT_INC,CORRECT,1,138,-4,0
7,embedding_mental_LR,Filler,N2,other,SPP,CORRECT_INC,CORRECT,1,17,-4,0
7,embedding_mental_LR,Filler,N2,other,SPP,CORRECT_INC,CORRECT,2,231,-4,0
7,embedding_mental_LR,Filler,N2,other,SPS,CORRECT_INC,CORRECT,2,5,-4,0
7,embedding_mental_LR,Filler,N2,other,SSP,CORRECT_INC,CORRECT,2,39,-4,0
7,embedding_mental_LR,Filler,N2,other,SSS,CORRECT_INC,CORRECT,1,154,-4,0
7,embedding_mental_LR,Filler,N2,other,SSS,WRONG_INC,WRONG,1,65,-4,3.1366
7,embedding_mental_LR,Filler,V2,inner,PPP,CORRECT_INC,CORRECT,1,224,-7,0
7,embedding_mental_LR,Filler,V2,inner,PPP,CORRECT_INC,CORRECT,1,253,-7,0
7,embedding_mental_LR,Filler,V2,inner,PPP,CORRECT_INC,CORRECT,1,52,-7,0
7,embedding_mental_LR,Filler,V2,inner,PPP,CORRECT_INC,CORRECT,2,29,-7,0
7,embedding_mental_LR,Filler,V2,inner,PPS,CORRECT_INC,CORRECT,1,14,-7,0
7,embedding_mental_LR,Filler,V2,inner,PPS,CORRECT_INC,CORRECT,1,226,-7,0
7,embedding_mental_LR,Filler,V2,inner,PPS,CORRECT_INC,CORRECT,2,85,-7,0
7,embedding_mental_LR,Filler,V2,inner,PSP,CORRECT_INC,CORRECT,1,264,-7,0
7,embedding_mental_LR,Filler,V2,inner,PSP,CORRECT_INC,CORRECT,1,98,-7,0
7,embedding_mental_LR,Filler,V2,inner,PSP,CORRECT_INC,CORRECT,2,225,-7,0
7,embedding_mental_LR,Filler,V2,inner,PSP,CORRECT_INC,CORRECT,2,71,-7,0
7,embedding_mental_LR,Filler,V2,inner,PSS,CORRECT_INC,CORRECT,1,149,-7,0
7,embedding_mental_LR,Filler,V2,inner,PSS,CORRECT_INC,CORRECT,1,162,-7,0
7,embedding_mental_LR,Filler,V2,inner,PSS,CORRECT_INC,CORRECT,1,22,-7,0
7,embedding_mental_LR,Filler,V2,inner,PSS,CORRECT_INC,CORRECT,2,147,-7,0
7,embedding_mental_LR,Filler,V2,inner,PSS,WRONG_INC,WRONG,1,126,-7,1.6645
7,embedding_mental_LR,Filler,V2,inner,SPP,CORRECT_INC,CORRECT,1,187,-7,0
7,embedding_mental_LR,Filler,V2,inner,SPS,CORRECT_INC,CORRECT,1,176,-7,0
7,embedding_mental_LR,Filler,V2,inner,SPS,CORRECT_INC,CORRECT,2,122,-7,0
7,embedding_mental_LR,Filler,V2,inner,SPS,CORRECT_INC,CORRECT,2,143,-7,0
7,embedding_mental_LR,Filler,V2,inner,SPS,CORRECT_INC,CORRECT,2,46,-7,0
7,embedding_mental_LR,Filler,V2,inner,SPS,CORRECT_INC,CORRECT,2,86,-7,0
7,embedding_mental_LR,Filler,V2,inner,SSP,CORRECT_INC,CORRECT,1,167,-7,0
7,embedding_mental_LR,Filler,V2,inner,SSP,CORRECT_INC,CORRECT,1,194,-7,0
7,embedding_mental_LR,Filler,V2,inner,SSP,CORRECT_INC,CORRECT,1,212,-7,0
7,embedding_mental_LR,Filler,V2,inner,SSP,CORRECT_INC,CORRECT,1,31,-7,0
7,embedding_mental_LR,Filler,V2,inner,SSP,CORRECT_INC,CORRECT,2,41,-7,0
7,embedding_mental_LR,Filler,V2,inner,SSS,CORRECT_INC,CORRECT,1,148,-7,0
7,embedding_mental_LR,Filler,V2,inner,SSS,CORRECT_INC,CORRECT,1,27,-7,0
7,embedding_mental_LR,Filler,V2,inner,SSS,CORRECT_INC,CORRECT,2,141,-7,0
7,embedding_mental_LR,Violation,V2,inner,PPP,CORRECT_INC,CORRECT,1,211,7,0
7,embedding_mental_LR,Violation,V2,inner,PPP,CORRECT_INC,CORRECT,1,250,7,0
7,embedding_mental_LR,Violation,V2,inner,PPP,CORRECT_INC,CORRECT,2,174,7,0
7,embedding_mental_LR,Violation,V2,inner,PPP,CORRECT_INC,CORRECT,2,212,7,0
7,embedding_mental_LR,Violation,V2,inner,PPP,WRONG_INC,WRONG,2,38,7,1.9333
7,embedding_mental_LR,Violation,V2,inner,PPS,CORRECT_INC,CORRECT,1,181,7,0
7,embedding_mental_LR,Violation,V2,inner,PPS,CORRECT_INC,CORRECT,1,192,7,0
7,embedding_mental_LR,Violation,V2,inner,PPS,CORRECT_INC,CORRECT,2,124,7,0
7,embedding_mental_LR,Violation,V2,inner,PPS,CORRECT_INC,CORRECT,2,254,7,0
7,embedding_mental_LR,Violation,V2,inner,PPS,CORRECT_INC,CORRECT,2,92,7,0
7,embedding_mental_LR,Violation,V2,inner,PSP,CORRECT_INC,CORRECT,1,143,7,0
7,embedding_mental_LR,Violation,V2,inner,PSP,CORRECT_INC,CORRECT,1,155,7,0
7,embedding_mental_LR,Violation,V2,inner,PSP,CORRECT_INC,CORRECT,2,106,7,0
7,embedding_mental_LR,Violation,V2,inner,PSP,CORRECT_INC,CORRECT,2,246,7,0
7,embedding_mental_LR,Violation,V2,inner,PSP,CORRECT_INC,CORRECT,2,3,7,0
7,embedding_mental_LR,Violation,V2,inner,PSS,CORRECT_INC,CORRECT,1,229,7,0
7,embedding_mental_LR,Violation,V2,inner,PSS,CORRECT_INC,CORRECT,1,265,7,0
7,embedding_mental_LR,Violation,V2,inner,PSS,CORRECT_INC,CORRECT,2,101,7,0
7,embedding_mental_LR,Violation,V2,inner,PSS,CORRECT_INC,CORRECT,2,157,7,0
7,embedding_mental_LR,Violation,V2,inner,PSS,CORRECT_INC,CORRECT,2,2,7,0
7,embedding_mental_LR,Violation,V2,inner,SPP,CORRECT_INC,CORRECT,1,118,7,0
7,embedding_mental_LR,Violation,V2,inner,SPP,CORRECT_INC,CORRECT,1,190,7,0
7,embedding_mental_LR,Violation,V2,inner,SPP,CORRECT_INC,CORRECT,1,268,7,0
7,embedding_mental_LR,Violation,V2,inner,SPP,CORRECT_INC,CORRECT,2,169,7,0
7,embedding_mental_LR,Violation,V2,inner,SPP,CORRECT_INC,CORRECT,2,76,7,0
7,embedding_mental_LR,Violation,V2,inner,SPS,CORRECT_INC,CORRECT,1,266,7,0
7,embedding_mental_LR,Violation,V2,inner,SPS,CORRECT_INC,CORRECT,1,4,7,0
7,embedding_mental_LR,Violation,V2,inner,SPS,CORRECT_INC,CORRECT,2,223,7,0
7,embedding_mental_LR,Violation,V2,inner,SPS,CORRECT_INC,CORRECT,2,27,7,0
7,embedding_mental_LR,Violation,V2,inner,SPS,CORRECT_INC,CORRECT,2,33,7,0
7,embedding_mental_LR,Violation,V2,inner,SSP,CORRECT_INC,CORRECT,1,116,7,0
7,embedding_mental_LR,Violation,V2,inner,SSP,CORRECT_INC,CORRECT,1,99,7,0
7,embedding_mental_LR,Violation,V2,inner,SSP,CORRECT_INC,CORRECT,2,150,7,0
7,embedding_mental_LR,Violation,V2,inner,SSP,CORRECT_INC,CORRECT,2,247,7,0
7,embedding_mental_LR,Violation,V2,inner,SSP,CORRECT_INC,CORRECT,2,60,7,0
7,embedding_mental_LR,Violation,V2,inner,SSS,CORRECT_INC,CORRECT,1,255,7,0
7,embedding_mental_LR,Violation,V2,inner,SSS,CORRECT_INC,CORRECT,1,34,7,0
7,embedding_mental_LR,Violation,V2,inner,SSS,CORRECT_INC,CORRECT,1,96,7,0
7,embedding_mental_LR,Violation,V2,inner,SSS,CORRECT_INC,CORRECT,2,107,7,0
7,embedding_mental_LR,Violation,V2,inner,SSS,CORRECT_INC,CORRECT,2,54,7,0
7,embedding_mental_SR,Acceptable,NaN,other,PP,CORRECT,CORRECT,2,186,0,0
7,embedding_mental_SR,Acceptable,NaN,other,PP,CORRECT_INC,CORRECT,1,55,0,0
7,embedding_mental_SR,Acceptable,NaN,other,PP,CORRECT_INC,CORRECT,1,84,0,0
7,embedding_mental_SR,Acceptable,NaN,other,PP,CORRECT_INC,CORRECT,2,241,0,0
7,embedding_mental_SR,Acceptable,NaN,other,PP,CORRECT_INC,CORRECT,2,81,0,0
7,embedding_mental_SR,Acceptable,NaN,other,PS,CORRECT,CORRECT,2,170,0,0
7,embedding_mental_SR,Acceptable,NaN,other,PS,CORRECT_INC,CORRECT,1,100,0,0
7,embedding_mental_SR,Acceptable,NaN,other,PS,CORRECT_INC,CORRECT,1,134,0,0
7,embedding_mental_SR,Acceptable,NaN,other,PS,CORRECT_INC,CORRECT,1,140,0,0
7,embedding_mental_SR,Acceptable,NaN,other,PS,CORRECT_INC,CORRECT,2,188,0,0
7,embedding_mental_SR,Acceptable,NaN,other,SP,CORRECT,CORRECT,2,267,0,0
7,embedding_mental_SR,Acceptable,NaN,other,SP,CORRECT_INC,CORRECT,1,131,0,0
7,embedding_mental_SR,Acceptable,NaN,other,SP,CORRECT_INC,CORRECT,2,179,0,0
7,embedding_mental_SR,Acceptable,NaN,other,SP,CORRECT_INC,CORRECT,2,31,0,0
7,embedding_mental_SR,Acceptable,NaN,other,SP,CORRECT_INC,CORRECT,2,74,0,0
7,embedding_mental_SR,Acceptable,NaN,other,SS,CORRECT_INC,CORRECT,1,124,0,0
7,embedding_mental_SR,Acceptable,NaN,other,SS,CORRECT_INC,CORRECT,1,6,0,0
7,embedding_mental_SR,Acceptable,NaN,other,SS,CORRECT_INC,CORRECT,2,97,0,0
7,embedding_mental_SR,Acceptable,NaN,other,SS,WRONG_INC,WRONG,2,14,0,0
7,embedding_mental_SR,Acceptable,NaN,other,SS,WRONG_INC,WRONG,2,8,0,0
7,embedding_mental_SR,Filler,N1,other,PP,WRONG_INC,WRONG,1,12,-1,3.5413
7,embedding_mental_SR,Filler,N1,other,PS,CORRECT_INC,CORRECT,1,89,-1,0
7,embedding_mental_SR,Filler,N1,other,PS,WRONG_INC,WRONG,2,249,-1,3.6382
7,embedding_mental_SR,Filler,N1,other,SP,CORRECT_INC,CORRECT,1,38,-1,0
7,embedding_mental_SR,Filler,N1,other,SS,CORRECT_INC,CORRECT,2,183,-1,0
7,embedding_mental_SR,Filler,V2,inner,PP,CORRECT_INC,CORRECT,2,121,-5,0
7,embedding_mental_SR,Filler,V2,inner,PP,CORRECT_INC,CORRECT,2,220,-5,0
7,embedding_mental_SR,Filler,V2,inner,PP,CORRECT_INC,CORRECT,2,61,-5,0
7,embedding_mental_SR,Filler,V2,inner,PS,CORRECT_INC,CORRECT,1,145,-5,0
7,embedding_mental_SR,Filler,V2,inner,PS,CORRECT_INC,CORRECT,1,156,-5,0
7,embedding_mental_SR,Filler,V2,inner,PS,CORRECT_INC,CORRECT,1,213,-5,0
7,embedding_mental_SR,Filler,V2,inner,PS,CORRECT_INC,CORRECT,1,53,-5,0
7,embedding_mental_SR,Filler,V2,inner,PS,CORRECT_INC,CORRECT,1,61,-5,0
7,embedding_mental_SR,Filler,V2,inner,PS,CORRECT_INC,CORRECT,2,11,-5,0
7,embedding_mental_SR,Filler,V2,inner,PS,CORRECT_INC,CORRECT,2,120,-5,0
7,embedding_mental_SR,Filler,V2,inner,PS,CORRECT_INC,CORRECT,2,173,-5,0
7,embedding_mental_SR,Filler,V2,inner,SP,CORRECT_INC,CORRECT,1,7,-5,0
7,embedding_mental_SR,Filler,V2,inner,SP,CORRECT_INC,CORRECT,2,142,-5,0
7,embedding_mental_SR,Filler,V2,inner,SP,CORRECT_INC,CORRECT,2,90,-5,0
7,embedding_mental_SR,Filler,V2,inner,SS,CORRECT_INC,CORRECT,1,64,-5,0
7,embedding_mental_SR,Violation,V2,inner,PP,CORRECT_INC,CORRECT,1,219,5,0
7,embedding_mental_SR,Violation,V2,inner,PP,CORRECT_INC,CORRECT,1,28,5,0
7,embedding_mental_SR,Violation,V2,inner,PP,CORRECT_INC,CORRECT,2,187,5,0
7,embedding_mental_SR,Violation,V2,inner,PP,CORRECT_INC,CORRECT,2,245,5,0
7,embedding_mental_SR,Violation,V2,inner,PP,CORRECT_INC,CORRECT,2,252,5,0
7,embedding_mental_SR,Violation,V2,inner,PS,CORRECT_INC,CORRECT,1,240,5,0
7,embedding_mental_SR,Violation,V2,inner,PS,CORRECT_INC,CORRECT,2,176,5,0
7,embedding_mental_SR,Violation,V2,inner,PS,CORRECT_INC,CORRECT,2,217,5,0
7,embedding_mental_SR,Violation,V2,inner,PS,CORRECT_INC,CORRECT,2,4,5,0
7,embedding_mental_SR,Violation,V2,inner,PS,CORRECT_INC,CORRECT,2,72,5,0
7,embedding_mental_SR,Violation,V2,inner,SP,CORRECT_INC,CORRECT,1,119,5,0
7,embedding_mental_SR,Violation,V2,inner,SP,CORRECT_INC,CORRECT,1,16,5,0
7,embedding_mental_SR,Violation,V2,inner,SP,CORRECT_INC,CORRECT,1,197,5,0
7,embedding_mental_SR,Violation,V2,inner,SP,CORRECT_INC,CORRECT,1,46,5,0
7,embedding_mental_SR,Violation,V2,inner,SP,CORRECT_INC,CORRECT,2,45,5,0
7,embedding_mental_SR,Violation,V2,inner,SS,CORRECT_INC,CORRECT,1,235,5,0
7,embedding_mental_SR,Violation,V2,inner,SS,CORRECT_INC,CORRECT,1,237,5,0
7,embedding_mental_SR,Violation,V2,inner,SS,CORRECT_INC,CORRECT,1,97,5,0
7,embedding_mental_SR,Violation,V2,inner,SS,CORRECT_INC,CORRECT,2,211,5,0
7,embedding_mental_SR,Violation,V2,inner,SS,CORRECT_INC,CORRECT,2,232,5,0
7,objrel,Acceptable,NaN,other,PP,CORRECT,CORRECT,2,58,0,0
7,objrel,Acceptable,NaN,other,PP,CORRECT_INC,CORRECT,1,112,0,0
7,objrel,Acceptable,NaN,other,PP,CORRECT_INC,CORRECT,1,114,0,0
7,objrel,Acceptable,NaN,other,PP,CORRECT_INC,CORRECT,1,218,0,0
7,objrel,Acceptable,NaN,other,PP,CORRECT_INC,CORRECT,1,221,0,0
7,objrel,Acceptable,NaN,other,PP,CORRECT_INC,CORRECT,1,41,0,0
7,objrel,Acceptable,NaN,other,PP,CORRECT_INC,CORRECT,2,149,0,0
7,objrel,Acceptable,NaN,other,PP,CORRECT_INC,CORRECT,2,191,0,0
7,objrel,Acceptable,NaN,other,PP,CORRECT_INC,CORRECT,2,242,0,0
7,objrel,Acceptable,NaN,other,PP,WRONG_DDC,REJECTED,2,164,0,0
7,objrel,Acceptable,NaN,other,PS,CORRECT,CORRECT,1,1,0,0
7,objrel,Acceptable,NaN,other,PS,CORRECT,CORRECT,2,119,0,0
7,objrel,Acceptable,NaN,other,PS,CORRECT,CORRECT,2,202,0,0
7,objrel,Acceptable,NaN,other,PS,CORRECT_INC,CORRECT,1,139,0,0
7,objrel,Acceptable,NaN,other,PS,CORRECT_INC,CORRECT,1,165,0,0
7,objrel,Acceptable,NaN,other,PS,CORRECT_INC,CORRECT,1,29,0,0
7,objrel,Acceptable,NaN,other,PS,CORRECT_INC,CORRECT,2,109,0,0
7,objrel,Acceptable,NaN,other,PS,CORRECT_INC,CORRECT,2,128,0,0
7,objrel,Acceptable,NaN,other,PS,CORRECT_INC,CORRECT,2,158,0,0
7,objrel,Acceptable,NaN,other,PS,CORRECT_INC,CORRECT,2,95,0,0
7,objrel,Acceptable,NaN,other,SP,CORRECT,CORRECT,1,225,0,0
7,objrel,Acceptable,NaN,other,SP,CORRECT,CORRECT,1,254,0,0
7,objrel,Acceptable,NaN,other,SP,CORRECT,CORRECT,2,104,0,0
7,objrel,Acceptable,NaN,other,SP,CORRECT_INC,CORRECT,1,123,0,0
7,objrel,Acceptable,NaN,other,SP,CORRECT_INC,CORRECT,1,20,0,0
7,objrel,Acceptable,NaN,other,SP,CORRECT_INC,CORRECT,1,228,0,0
7,objrel,Acceptable,NaN,other,SP,CORRECT_INC,CORRECT,2,117,0,0
7,objrel,Acceptable,NaN,other,SP,CORRECT_INC,CORRECT,2,160,0,0
7,objrel,Acceptable,NaN,other,SP,CORRECT_INC,CORRECT,2,203,0,0
7,objrel,Acceptable,NaN,other,SP,CORRECT_INC,CORRECT,2,244,0,0
7,objrel,Acceptable,NaN,other,SS,CORRECT,CORRECT,1,159,0,0
7,objrel,Acceptable,NaN,other,SS,CORRECT,CORRECT,2,19,0,0
7,objrel,Acceptable,NaN,other,SS,CORRECT,CORRECT,2,70,0,0
7,objrel,Acceptable,NaN,other,SS,CORRECT_INC,CORRECT,1,113,0,0
7,objrel,Acceptable,NaN,other,SS,CORRECT_INC,CORRECT,1,85,0,0
7,objrel,Acceptable,NaN,other,SS,CORRECT_INC,CORRECT,1,94,0,0
7,objrel,Acceptable,NaN,other,SS,CORRECT_INC,CORRECT,2,103,0,0
7,objrel,Acceptable,NaN,other,SS,CORRECT_INC,CORRECT,2,80,0,0
7,objrel,Acceptable,NaN,other,SS,WRONG_INC,WRONG,1,231,0,0
7,objrel,Acceptable,NaN,other,SS,WRONG_INC,WRONG,2,269,0,0
7,objrel,Filler,N1,other,PP,WRONG,WRONG,1,160,-1,0
7,objrel,Filler,N1,other,PS,CORRECT_INC,CORRECT,1,92,-1,0
7,objrel,Filler,N1,other,PS,CORRECT_INC,CORRECT,2,62,-1,0
7,objrel,Filler,N1,other,PS,WRONG_INC,WRONG,1,3,-1,3.783
7,objrel,Filler,N1,other,SP,CORRECT_INC,CORRECT,2,255,-1,0
7,objrel,Filler,N1,other,SP,CORRECT_INC,CORRECT,2,79,-1,0
7,objrel,Filler,N1,other,SS,CORRECT_INC,CORRECT,2,165,-1,0
7,objrel,Filler,N1,other,SS,CORRECT_INC,CORRECT,2,221,-1,0
7,objrel,Filler,N1,other,SS,CORRECT_INC,CORRECT,2,250,-1,0
7,objrel,Filler,N1,other,SS,CORRECT_INC,CORRECT,2,9,-1,0
7,objrel,Filler,V1,inner,PP,CORRECT_INC,CORRECT,2,20,-4,0
7,objrel,Filler,V1,inner,PP,CORRECT_INC,CORRECT,2,43,-4,0
7,objrel,Filler,V1,inner,PP,CORRECT_INC,CORRECT,2,67,-4,0
7,objrel,Filler,V1,inner,PS,CORRECT_INC,CORRECT,1,146,-4,0
7,objrel,Filler,V1,inner,PS,CORRECT_INC,CORRECT,2,178,-4,0
7,objrel,Filler,V1,inner,SP,CORRECT_INC,CORRECT,1,188,-4,0
7,objrel,Filler,V1,inner,SP,CORRECT_INC,CORRECT,1,236,-4,0
7,objrel,Filler,V1,inner,SP,CORRECT_INC,CORRECT,1,9,-4,0
7,objrel,Filler,V1,inner,SP,CORRECT_INC,CORRECT,2,37,-4,0
7,objrel,Filler,V1,inner,SS,CORRECT_INC,CORRECT,1,127,-4,0
7,objrel,Filler,V1,inner,SS,CORRECT_INC,CORRECT,1,172,-4,0
7,objrel,Filler,V1,inner,SS,CORRECT_INC,CORRECT,1,195,-4,0
7,objrel,Filler,V1,inner,SS,CORRECT_INC,CORRECT,2,204,-4,0
7,objrel,Filler,V1,inner,SS,CORRECT_INC,CORRECT,2,258,-4,0
7,objrel,Filler,V1,inner,SS,CORRECT_INC,CORRECT,2,93,-4,0
7,objrel,Filler,V2,outer,PP,CORRECT_INC,CORRECT,2,199,-5,0
7,objrel,Filler,V2,outer,PP,CORRECT_INC,CORRECT,2,88,-5,0
7,objrel,Filler,V2,outer,PP,WRONG,WRONG,1,50,-5,0
7,objrel,Filler,V2,outer,PS,CORRECT_INC,CORRECT,1,83,-5,0
7,objrel,Filler,V2,outer,PS,CORRECT_INC,CORRECT,2,100,-5,0
7,objrel,Filler,V2,outer,PS,CORRECT_INC,CORRECT,2,22,-5,0
7,objrel,Filler,V2,outer,PS,CORRECT_INC,CORRECT,2,270,-5,0
7,objrel,Filler,V2,outer,SP,CORRECT_INC,CORRECT,1,191,-5,0
7,objrel,Filler,V2,outer,SP,CORRECT_INC,CORRECT,1,201,-5,0
7,objrel,Filler,V2,outer,SP,CORRECT_INC,CORRECT,1,227,-5,0
7,objrel,Filler,V2,outer,SP,CORRECT_INC,CORRECT,1,93,-5,0
7,objrel,Filler,V2,outer,SP,CORRECT_INC,CORRECT,2,63,-5,0
7,objrel,Filler,V2,outer,SS,CORRECT_INC,CORRECT,1,164,-5,0
7,objrel,Filler,V2,outer,SS,CORRECT_INC,CORRECT,1,243,-5,0
7,objrel,Filler,V2,outer,SS,CORRECT_INC,CORRECT,2,233,-5,0
7,objrel,Violation,V1,inner,PP,CORRECT_INC,CORRECT,1,258,4,0
7,objrel,Violation,V1,inner,PP,CORRECT_INC,CORRECT,1,30,4,0
7,objrel,Violation,V1,inner,PP,WRONG,WRONG,2,99,4,0
7,objrel,Violation,V1,inner,PP,WRONG_DDC,REJECTED,2,200,4,0
7,objrel,Violation,V1,inner,PP,WRONG_INC,WRONG,2,84,4,2.3306
7,objrel,Violation,V1,inner,PS,CORRECT_INC,CORRECT,1,110,4,0
7,objrel,Violation,V1,inner,PS,CORRECT_INC,CORRECT,1,198,4,0
7,objrel,Violation,V1,inner,PS,CORRECT_INC,CORRECT,2,13,4,0
7,objrel,Violation,V1,inner,PS,WRONG_INC,WRONG,1,184,4,2.0706
7,objrel,Violation,V1,inner,PS,WRONG_INC,WRONG,2,194,4,2.4853
7,objrel,Violation,V1,inner,SP,CORRECT_INC,CORRECT,1,251,4,0
7,objrel,Violation,V1,inner,SP,CORRECT_INC,CORRECT,1,262,4,0
7,objrel,Violation,V1,inner,SP,CORRECT_INC,CORRECT,1,71,4,0
7,objrel,Violation,V1,inner,SP,CORRECT_INC,CORRECT,2,125,4,0
7,objrel,Violation,V1,inner,SP,WRONG,WRONG,2,50,4,0
7,objrel,Violation,V1,inner,SS,CORRECT_INC,CORRECT,1,202,4,0
7,objrel,Violation,V1,inner,SS,CORRECT_INC,CORRECT,2,156,4,0
7,objrel,Violation,V1,inner,SS,CORRECT_INC,CORRECT,2,190,4,0
7,objrel,Violation,V1,inner,SS,CORRECT_INC,CORRECT,2,91,4,0
7,objrel,Violation,V1,inner,SS,CORRECT_INC,CORRECT,2,96,4,0
7,objrel,Violation,V2,outer,PP,CORRECT_INC,CORRECT,1,10,5,0
7,objrel,Violation,V2,outer,PP,CORRECT_INC,CORRECT,1,132,5,0
7,objrel,Violation,V2,outer,PP,CORRECT_INC,CORRECT,2,182,5,0
7,objrel,Violation,V2,outer,PP,WRONG,WRONG,1,157,5,0
7,objrel,Violation,V2,outer,PP,WRONG,WRONG,1,25,5,0
7,objrel,Violation,V2,outer,PS,CORRECT_INC,CORRECT,1,108,5,0
7,objrel,Violation,V2,outer,PS,CORRECT_INC,CORRECT,1,128,5,0
7,objrel,Violation,V2,outer,PS,CORRECT_INC,CORRECT,1,32,5,0
7,objrel,Violation,V2,outer,PS,CORRECT_INC,CORRECT,1,56,5,0
7,objrel,Violation,V2,outer,PS,CORRECT_INC,CORRECT,1,70,5,0
7,objrel,Violation,V2,outer,SP,CORRECT_INC,CORRECT,1,13,5,0
7,objrel,Violation,V2,outer,SP,CORRECT_INC,CORRECT,1,2,5,0
7,objrel,Violation,V2,outer,SP,CORRECT_INC,CORRECT,2,105,5,0
7,objrel,Violation,V2,outer,SP,WRONG_DDC,REJECTED,2,116,5,0
7,objrel,Violation,V2,outer,SP,WRONG_INC,WRONG,1,59,5,1.6672
7,objrel,Violation,V2,outer,SS,CORRECT_INC,CORRECT,2,138,5,0
7,objrel,Violation,V2,outer,SS,CORRECT_INC,CORRECT,2,163,5,0
7,objrel,Violation,V2,outer,SS,CORRECT_INC,CORRECT,2,175,5,0
7,objrel,Violation,V2,outer,SS,CORRECT_INC,CORRECT,2,59,5,0
7,objrel,Violation,V2,outer,SS,WRONG_INC,WRONG,2,17,5,1.9291
7,objrel_nounpp,Acceptable,NaN,other,PPP,CORRECT,CORRECT,2,266,0,0
7,objrel_nounpp,Acceptable,NaN,other,PPP,CORRECT_INC,CORRECT,1,135,0,0
7,objrel_nounpp,Acceptable,NaN,other,PPP,CORRECT_INC,CORRECT,1,239,0,0
7,objrel_nounpp,Acceptable,NaN,other,PPP,CORRECT_INC,CORRECT,1,43,0,0
7,objrel_nounpp,Acceptable,NaN,other,PPP,CORRECT_INC,CORRECT,1,66,0,0
7,objrel_nounpp,Acceptable,NaN,other,PPP,CORRECT_INC,CORRECT,2,42,0,0
7,objrel_nounpp,Acceptable,NaN,other,PPP,CORRECT_INC,CORRECT,2,55,0,0
7,objrel_nounpp,Acceptable,NaN,other,PPP,CORRECT_INC,CORRECT,2,89,0,0
7,objrel_nounpp,Acceptable,NaN,other,PPP,WRONG_INC,WRONG,2,134,0,0
7,objrel_nounpp,Acceptable,NaN,other,PPP,WRONG_INC,WRONG,2,145,0,0
7,objrel_nounpp,Acceptable,NaN,other,PPS,CORRECT,CORRECT,1,193,0,0
7,objrel_nounpp,Acceptable,NaN,other,PPS,CORRECT_INC,CORRECT,1,137,0,0
7,objrel_nounpp,Acceptable,NaN,other,PPS,CORRECT_INC,CORRECT,1,166,0,0
7,objrel_nounpp,Acceptable,NaN,other,PPS,CORRECT_INC,CORRECT,1,57,0,0
7,objrel_nounpp,Acceptable,NaN,other,PPS,CORRECT_INC,CORRECT,1,8,0,0
7,objrel_nounpp,Acceptable,NaN,other,PPS,CORRECT_INC,CORRECT,2,151,0,0
7,objrel_nounpp,Acceptable,NaN,other,PPS,CORRECT_INC,CORRECT,2,236,0,0
7,objrel_nounpp,Acceptable,NaN,other,PPS,CORRECT_INC,CORRECT,2,261,0,0
7,objrel_nounpp,Acceptable,NaN,other,PPS,WRONG_INC,WRONG,2,181,0,0
7,objrel_nounpp,Acceptable,NaN,other,PPS,WRONG_INC,WRONG,2,222,0,0
7,objrel_nounpp,Acceptable,NaN,other,PSP,CORRECT,CORRECT,1,5,0,0
7,objrel_nounpp,Acceptable,NaN,other,PSP,CORRECT_INC,CORRECT,1,115,0,0
7,objrel_nounpp,Acceptable,NaN,other,PSP,CORRECT_INC,CORRECT,2,129,0,0
7,objrel_nounpp,Acceptable,NaN,other,PSP,CORRECT_INC,CORRECT,2,201,0,0
7,objrel_nounpp,Acceptable,NaN,other,PSP,CORRECT_INC,CORRECT,2,32,0,0
7,objrel_nounpp,Acceptable,NaN,other,PSP,CORRECT_INC,CORRECT,2,64,0,0
7,objrel_nounpp,Acceptable,NaN,other,PSP,CORRECT_INC,CORRECT,2,75,0,0
7,objrel_nounpp,Acceptable,NaN,other,PSP,WRONG_INC,WRONG,1,104,0,0
7,objrel_nounpp,Acceptable,NaN,other,PSP,WRONG_INC,WRONG,1,152,0,0
7,objrel_nounpp,Acceptable,NaN,other,PSP,WRONG_INC,WRONG,2,144,0,0
7,objrel_nounpp,Acceptable,NaN,other,PSS,CORRECT,CORRECT,1,263,0,0
7,objrel_nounpp,Acceptable,NaN,other,PSS,CORRECT,CORRECT,1,67,0,0
7,objrel_nounpp,Acceptable,NaN,other,PSS,CORRECT_INC,CORRECT,1,180,0,0
7,objrel_nounpp,Acceptable,NaN,other,PSS,CORRECT_INC,CORRECT,1,245,0,0
7,objrel_nounpp,Acceptable,NaN,other,PSS,CORRECT_INC,CORRECT,1,270,0,0
7,objrel_nounpp,Acceptable,NaN,other,PSS,CORRECT_INC,CORRECT,1,58,0,0
7,objrel_nounpp,Acceptable,NaN,other,PSS,CORRECT_INC,CORRECT,1,73,0,0
7,objrel_nounpp,Acceptable,NaN,other,PSS,CORRECT_INC,CORRECT,2,53,0,0
7,objrel_nounpp,Acceptable,NaN,other,PSS,CORRECT_INC,CORRECT,2,94,0,0
7,objrel_nounpp,Acceptable,NaN,other,PSS,WRONG_INC,WRONG,1,247,0,0
7,objrel_nounpp,Acceptable,NaN,other,SPP,CORRECT_INC,CORRECT,1,207,0,0
7,objrel_nounpp,Acceptable,NaN,other,SPP,CORRECT_INC,CORRECT,1,241,0,0
7,objrel_nounpp,Acceptable,NaN,other,SPP,CORRECT_INC,CORRECT,1,252,0,0
7,objrel_nounpp,Acceptable,NaN,other,SPP,CORRECT_INC,CORRECT,1,42,0,0
7,objrel_nounpp,Acceptable,NaN,other,SPP,CORRECT_INC,CORRECT,1,76,0,0
7,objrel_nounpp,Acceptable,NaN,other,SPP,CORRECT_INC,CORRECT,2,184,0,0
7,objrel_nounpp,Acceptable,NaN,other,SPP,CORRECT_INC,CORRECT,2,224,0,0
7,objrel_nounpp,Acceptable,NaN,other,SPP,CORRECT_INC,CORRECT,2,251,0,0
7,objrel_nounpp,Acceptable,NaN,other,SPP,WRONG_INC,WRONG,1,161,0,0
7,objrel_nounpp,Acceptable,NaN,other,SPP,WRONG_INC,WRONG,1,174,0,0
7,objrel_nounpp,Acceptable,NaN,other,SPS,CORRECT,CORRECT,1,36,0,0
7,objrel_nounpp,Acceptable,NaN,other,SPS,CORRECT_DDC,REJECTED,1,60,0,0
7,objrel_nounpp,Acceptable,NaN,other,SPS,CORRECT_INC,CORRECT,1,21,0,0
7,objrel_nounpp,Acceptable,NaN,other,SPS,CORRECT_INC,CORRECT,1,72,0,0
7,objrel_nounpp,Acceptable,NaN,other,SPS,CORRECT_INC,CORRECT,2,209,0,0
7,objrel_nounpp,Acceptable,NaN,other,SPS,CORRECT_INC,CORRECT,2,265,0,0
7,objrel_nounpp,Acceptable,NaN,other,SPS,CORRECT_INC,CORRECT,2,34,0,0
7,objrel_nounpp,Acceptable,NaN,other,SPS,CORRECT_INC,CORRECT,2,69,0,0
7,objrel_nounpp,Acceptable,NaN,other,SPS,CORRECT_INC,CORRECT,2,83,0,0
7,objrel_nounpp,Acceptable,NaN,other,SPS,WRONG_INC,WRONG,2,112,0,0
7,objrel_nounpp,Acceptable,NaN,other,SSP,CORRECT,CORRECT,1,179,0,0
7,objrel_nounpp,Acceptable,NaN,other,SSP,CORRECT_INC,CORRECT,1,111,0,0
7,objrel_nounpp,Acceptable,NaN,other,SSP,CORRECT_INC,CORRECT,1,15,0,0
7,objrel_nounpp,Acceptable,NaN,other,SSP,CORRECT_INC,CORRECT,1,47,0,0
7,objrel_nounpp,Acceptable,NaN,other,SSP,CORRECT_INC,CORRECT,1,90,0,0
7,objrel_nounpp,Acceptable,NaN,other,SSP,CORRECT_INC,CORRECT,2,110,0,0
7,objrel_nounpp,Acceptable,NaN,other,SSP,CORRECT_INC,CORRECT,2,133,0,0
7,objrel_nounpp,Acceptable,NaN,other,SSP,CORRECT_INC,CORRECT,2,47,0,0
7,objrel_nounpp,Acceptable,NaN,other,SSP,WRONG_INC,WRONG,1,173,0,0
7,objrel_nounpp,Acceptable,NaN,other,SSP,WRONG_INC,WRONG,2,98,0,0
7,objrel_nounpp,Acceptable,NaN,other,SSS,CORRECT,CORRECT,1,170,0,0
7,objrel_nounpp,Acceptable,NaN,other,SSS,CORRECT,CORRECT,2,57,0,0
7,objrel_nounpp,Acceptable,NaN,other,SSS,CORRECT_INC,CORRECT,1,256,0,0
7,objrel_nounpp,Acceptable,NaN,other,SSS,CORRECT_INC,CORRECT,2,210,0,0
7,objrel_nounpp,Acceptable,NaN,other,SSS,CORRECT_INC,CORRECT,2,238,0,0
7,objrel_nounpp,Acceptable,NaN,other,SSS,CORRECT_INC,CORRECT,2,262,0,0
7,objrel_nounpp,Acceptable,NaN,other,SSS,CORRECT_INC,CORRECT,2,66,0,0
7,objrel_nounpp,Acceptable,NaN,other,SSS,WRONG_DDC,REJECTED,2,189,0,0
7,objrel_nounpp,Acceptable,NaN,other,SSS,WRONG_INC,WRONG,1,205,0,0
7,objrel_nounpp,Acceptable,NaN,other,SSS,WRONG_INC,WRONG,2,206,0,0
7,objrel_nounpp,Filler,N1,other,PPS,CORRECT_INC,CORRECT,1,158,-1,0
7,objrel_nounpp,Filler,N1,other,PPS,CORRECT_INC,CORRECT,2,111,-1,0
7,objrel_nounpp,Filler,N1,other,PPS,CORRECT_INC,CORRECT,2,16,-1,0
7,objrel_nounpp,Filler,N1,other,PPS,CORRECT_INC,CORRECT,2,260,-1,0
7,objrel_nounpp,Filler,N1,other,PSS,CORRECT_INC,CORRECT,2,49,-1,0
7,objrel_nounpp,Filler,N1,other,PSS,WRONG_INC,WRONG,1,153,-1,4.7703
7,objrel_nounpp,Filler,N1,other,SPP,CORRECT_INC,CORRECT,2,268,-1,0
7,objrel_nounpp,Filler,N1,other,SPS,CORRECT_INC,CORRECT,1,87,-1,0
7,objrel_nounpp,Filler,N1,other,SPS,CORRECT_INC,CORRECT,2,198,-1,0
7,objrel_nounpp,Filler,N1,other,SSS,CORRECT_INC,CORRECT,1,101,-1,0
7,objrel_nounpp,Filler,N2,other,PPP,CORRECT_INC,CORRECT,1,150,-3,0
7,objrel_nounpp,Filler,N2,other,PPS,CORRECT_INC,CORRECT,2,237,-3,0
7,objrel_nounpp,Filler,N2,other,PSP,CORRECT_INC,CORRECT,1,88,-3,0
7,objrel_nounpp,Filler,N2,other,PSP,CORRECT_INC,CORRECT,2,30,-3,0
7,objrel_nounpp,Filler,N2,other,PSP,CORRECT_INC,CORRECT,2,48,-3,0
7,objrel_nounpp,Filler,N2,other,SPS,CORRECT_INC,CORRECT,2,139,-3,0
7,objrel_nounpp,Filler,N2,other,SPS,CORRECT_INC,CORRECT,2,172,-3,0
7,objrel_nounpp,Filler,N2,other,SPS,CORRECT_INC,CORRECT,2,213,-3,0
7,objrel_nounpp,Filler,N2,other,SSP,CORRECT_INC,CORRECT,1,81,-3,0
7,objrel_nounpp,Filler,N2,other,SSS,CORRECT_INC,CORRECT,2,126,-3,0
7,objrel_nounpp,Filler,V1,inner,PPP,CORRECT_INC,CORRECT,1,183,-7,0
